File: TCP_ML/Target_Encoding/df_encoded_PCE.csv
Cs,FA,MA,I,Br,structure,bandgap,glass,ETL,ETL-2,Ethickness,HTL,Hthickness,meta,depositionProcedure,depositionMethod,Anti-solvent,PrecursorSolution,AnnealingTemperature,AnnealingTime,Jsc,Voc,FF,PCE
0.2,0.664,0.136,2.49,0.51,1,1.67593,13.7486,13.4883,13.3833,32.8,14.5098,150.22,14.1278,15.0432,14.5407,14.2343,14.001,100.0,60.0,20.8,1.09,0.74,16.8
0.1,0.0,0.9,3.0,0.0,0,1.54,15.1313,11.7704,14.7209,22.0,11.6,205.0,12.109,13.3874,14.5407,11.8135,11.7428,110.0,10.0,10.1,1.05,0.73,7.68
0.1,0.747,0.153,2.49,0.51,1,1.56477,15.1313,15.5699,14.7209,72.6,14.5098,200.62,14.1278,15.0432,14.5407,14.2343,14.001,100.0,60.0,23.79,0.984,0.818,19.15
0.0,0.0,1.0,3.0,0.0,0,1.52,15.1313,11.7704,14.7209,24.0,11.6,198.0,12.109,13.3874,14.5407,11.8135,11.7428,110.0,10.0,8.89,0.89,0.7,5.51
0.05,0.85,0.15,2.55,0.45,1,1.69117,13.7486,14.9665,14.7209,28.0,14.5098,172.0,15.2714,15.0432,14.5407,14.8646,14.001,150.0,20.0,22.74,1.078,0.7324,18.16
0.05,0.7885,0.1615,2.49,0.51,1,1.69706,13.7486,13.4883,13.3833,40.0,14.5098,26.0314,14.1278,15.0432,14.5407,14.2343,14.001,100.0,60.0,20.038,1.0312,0.725,16.1
0.05,0.7885,0.1615,2.49,0.51,1,1.63738,15.1313,15.5699,14.7209,30.0,14.5098,165.0,15.2714,13.3874,14.5407,14.2343,14.001,120.0,5.0,20.01,1.14,0.7694,17.48
0.0,0.85,0.15,2.55,0.45,1,1.6,15.1313,15.159,14.7209,23.2,14.5098,104.2,14.1278,13.3874,14.5407,14.2343,14.001,100.0,10.0,20.77,1.04,0.68,14.08
0.05,0.7885,0.1615,2.49,0.51,1,1.6826,15.1313,15.5699,14.7209,23.2,14.5098,104.2,14.1278,15.0432,13.6124,14.2343,14.001,100.0,10.0,20.62,1.05,0.7605,16.51
0.05,0.8,0.15,2.5,0.5,1,1.544115,15.1313,15.5699,14.7209,54.208,14.5098,100.048,14.1278,15.0432,14.5407,14.2343,14.001,100.0,60.0,23.6,1.11,76.0,19.9
0.06,0.45,0.49,1.86,0.96,1,1.8,13.7486,15.5699,14.7209,21.2,14.5098,94.0034,13.5675,13.3874,13.3063,14.2343,14.001,100.0,30.0,9.5,0.96,0.4,5.4
0.05,0.85,0.15,2.55,0.45,1,1.69576,13.7486,14.9391,14.7209,28.0,14.5098,172.0,15.2714,15.0432,14.5407,14.8646,14.001,150.0,20.0,22.27,1.098,0.7296,17.95
0.2,0.32,0.48,2.8,0.2,1,1.65,13.7486,15.159,14.408,21.2,14.1593,94.0034,13.5675,15.0432,14.5407,14.994,14.001,100.0,30.0,12.61,0.889,0.6807,7.64
0.0,0.85,0.15,2.1,0.9,1,1.68,15.1313,15.159,14.7209,22.2,14.5098,139.2,14.1278,13.3874,14.5407,14.2343,14.001,100.0,10.0,17.71,1.1,0.65,10.04
0.05,0.7885,0.1615,1.5,1.5,1,1.69117,15.1313,15.5699,14.7209,22.2,14.5098,139.2,14.1278,15.0432,13.6124,14.2343,14.001,100.0,10.0,15.05,1.12,0.6427,10.81
0.2,0.75,0.05,2.49,0.51,1,1.544115,13.7486,13.4883,13.3833,31.0,14.5098,50.0314,14.1278,15.0432,14.5407,14.2343,14.001,100.0,60.0,20.4,1.054,0.74,15.9
0.05,0.7885,0.1615,2.49,0.51,1,1.68539,15.1313,15.5699,14.7209,52.0,14.5098,104.0,14.1278,15.0432,14.5407,14.2343,14.001,110.0,50.0,22.25,1.116,0.768,19.07
0.05,0.7885,0.1615,2.49,0.51,1,1.54116,13.7486,13.4883,13.3833,24.2,14.5098,55.0034,14.1278,15.0432,14.5407,14.2343,14.001,100.0,30.0,22.4,1.1,0.78,19.2
0.0,0.3,0.7,0.3,2.7,0,1.63,15.1313,14.5807,14.7346,23.2,15.0294,104.2,15.2714,15.0432,14.5407,11.8135,14.001,100.0,10.0,20.21,1.1,0.78,17.34
0.0,0.0,1.0,3.0,0.0,0,1.58,13.7486,11.7704,14.6411,40.6,13.4624,74.0,15.2714,12.719,12.7198,14.994,14.001,100.0,60.0,0.81,13.5,0.6,6.6
0.0,0.3,0.7,0.0,3.0,0,1.57,15.1313,14.5807,14.7346,24.2,15.0294,65.2,15.2714,15.0432,14.5407,11.8135,14.001,100.0,10.0,21.47,1.02,0.75,16.42
0.05,0.95,0.0,3.05,0.0,1,1.478,13.7486,15.159,14.7209,72.6,14.5098,150.428,14.1278,15.0432,14.5407,14.2343,14.001,100.0,60.0,25.45,1.09,0.727,20.1
0.0,0.5,0.5,2.0,1.0,1,1.75,13.7486,13.4883,13.3833,22.2,14.5098,94.0034,14.1278,15.0432,14.5407,14.2343,14.001,100.0,30.0,20.0,1.1,0.69,15.3
0.05,0.76,0.19,2.43,0.57,1,1.69576,13.7486,13.4883,13.3833,46.2,14.2418,91.0,14.1278,15.0432,14.5407,14.2343,14.001,102.0,38.6,18.5,0.991,0.7,12.59
0.0,0.17,0.83,0.5,2.5,1,2.15,13.7486,13.4883,13.3833,21.2,14.5098,133.0034,14.1278,15.0432,14.5407,14.2343,14.001,100.0,30.0,2.8,0.95,0.86,2.3
0.05,0.7885,0.1615,2.49,0.51,1,1.60329,13.7486,15.159,14.7209,60.0,14.5098,80.0,14.1278,15.0432,14.5407,14.2343,14.001,110.0,60.0,16.94,1.06,0.5784,10.42
0.0,0.0,1.0,2.4,0.6,1,1.72,15.1313,14.5807,14.7209,46.4,14.191,74.0,14.1278,14.3084,16.3531,14.994,16.0674,100.0,34.0,17.3,1.104,0.819,15.6
0.17,0.83,0.0,1.8,1.2,0,1.68654,15.1313,15.4052,14.6411,21.2,15.7676,94.0034,15.2714,16.5949,14.5407,14.8642,14.001,100.0,30.0,16.1,1.08,0.75,12.7
0.1,0.765,0.135,2.55,0.45,0,1.67593,15.1313,15.5699,14.7209,30.0,14.5098,176.0,15.2714,14.101,16.3531,14.2343,14.001,100.0,54.0,19.81,0.95,0.7,13.41
0.15,0.6375,0.2125,2.1,0.9,0,1.74,15.1313,15.4052,14.6411,21.2,15.7676,94.0034,15.4224,15.0432,14.5407,14.994,14.6717,100.0,30.0,18.0,1.11,0.719,14.4
0.05,0.83,0.12,2.61,0.39,1,1.61,13.7486,13.4883,15.2319,32.008,14.5098,190.22,14.1278,15.0432,14.5407,14.2343,14.001,100.0,50.0,22.51,1.168,0.776,20.2
0.15,0.6375,0.2125,2.4,0.6,0,1.68,15.1313,15.4052,14.6411,22.2,15.7676,94.0034,15.4224,15.0432,14.5407,14.994,14.6717,100.0,30.0,19.9,1.1,0.737,16.1
0.17,0.83,0.0,1.8,1.2,1,1.79,13.7486,15.5699,14.7209,34.6,14.5098,160.22,14.1278,15.0432,14.5407,14.2343,14.001,100.0,60.0,16.4,1.284,0.687,16.51
0.05,0.7885,0.1615,2.49,0.51,1,1.69531,13.7486,15.159,14.7209,60.0,14.3341,80.0,15.2714,13.3874,14.5407,14.2343,14.001,110.0,60.0,19.5,1.05,0.634,13.3
0.05,0.7885,0.1615,2.49,0.51,1,1.55477,13.7486,13.4883,13.3833,30.0,14.5098,50.0314,14.1278,15.0432,14.5407,14.2343,14.001,100.0,60.0,22.7,1.109,0.74,18.6
0.05,0.7885,0.1615,2.7,0.3,0,1.69576,15.1313,11.7704,14.9335,25.0,15.0294,10.0,12.109,15.0432,14.5407,14.2343,14.001,100.0,10.0,21.9,0.878,0.68,13.0
0.0,0.85,0.15,2.4,0.6,1,1.62,15.1313,15.159,14.7209,23.2,14.5098,104.2,14.1278,13.3874,14.5407,14.2343,14.001,100.0,10.0,20.18,1.05,0.54,9.79
0.0,0.17,0.83,3.0,0.0,1,1.59,13.7486,13.4883,13.3833,22.2,14.5098,94.0034,14.1278,15.0432,14.5407,14.2343,14.001,100.0,30.0,18.8,1.05,0.6,11.8
0.07,0.9,0.03,2.76,0.24,1,1.69576,13.7486,13.4883,13.3833,28.0,15.247,172.0,14.1278,15.0432,14.5407,14.2343,15.336,150.0,30.0,24.5,1.12,0.75,21.0
0.0,0.33,0.67,0.0,3.0,1,2.29,13.7486,13.4883,13.3833,21.2,14.5098,94.0034,14.1278,15.0432,14.5407,14.2343,14.001,100.0,30.0,6.4,1.35,0.72,6.4
0.05,0.7885,0.1615,2.7,0.3,1,1.58,13.7486,15.5699,13.9051,40.6,14.5098,74.0,15.2714,12.719,14.5407,14.994,14.001,100.0,60.0,1.08,22.6,0.74,18.0
0.0,0.83,0.17,0.0,3.0,1,2.28,13.7486,13.4883,13.3833,21.2,14.5098,94.0034,14.1278,15.0432,14.5407,14.2343,14.001,100.0,30.0,7.0,1.42,0.65,6.5
0.05,0.9,0.05,3.0,0.0,1,1.52658,13.7486,13.4883,15.8536,20.016,14.5098,0.07,14.1278,15.0432,14.5407,15.8536,14.001,100.0,60.0,25.32,1.12,0.837,23.76
0.05,0.745,0.255,2.235,0.765,1,1.69478,13.7486,13.4883,13.3833,21.2,14.5098,177.2,14.1278,13.3874,14.5407,14.994,14.001,100.0,3.0,18.56,1.016,0.6116,11.54
0.1,0.75,0.15,2.55,0.45,1,1.60329,15.1313,14.3576,14.7209,34.6,14.5098,150.22,15.2714,15.0432,14.5407,14.8646,14.001,100.0,60.0,17.92,1.168,0.7056,13.48
0.0,0.67,0.33,0.5,2.5,1,2.11,13.7486,13.4883,13.3833,21.2,14.5098,94.0034,14.1278,15.0432,14.5407,14.2343,14.001,100.0,30.0,7.2,0.92,0.51,3.4
0.05,0.87,0.08,2.76,0.24,0,1.69576,15.1313,15.922,15.6794,24.2,15.7676,59.0034,15.2714,13.3874,14.5407,14.994,14.8521,100.0,30.0,22.48,1.02,0.712,16.3
0.05,0.8,0.15,2.85,0.15,1,1.55,16.2199,16.2199,14.7209,72.6,13.615,160.4,16.3371,16.5949,16.3531,14.994,16.0674,134.0,26.0,24.1,1.18,0.83,23.7
0.06,0.79,0.15,2.55,0.45,1,1.53671,13.7486,13.4883,13.3833,46.208,14.5098,200.62,14.1278,15.0432,14.5407,14.2343,14.001,100.0,60.0,22.95,1.121,0.78,20.0
0.05,0.86,0.09,2.91,0.09,1,1.56,13.7486,15.5699,14.7209,32.8,14.5098,190.22,15.2714,15.0432,14.5407,14.2343,14.1985,100.0,60.0,21.0,0.987,0.453,9.4
0.0,0.33,0.67,2.0,1.0,1,1.76,13.7486,13.4883,13.3833,22.2,14.5098,94.0034,14.1278,15.0432,14.5407,14.2343,14.001,100.0,30.0,20.4,1.17,0.73,17.5
0.1,0.747,0.153,2.49,0.51,1,1.69005,13.7486,14.3698,13.3833,36.008,14.5098,190.22,15.4224,15.0432,14.5407,14.2343,14.001,100.0,60.0,21.8,1.1,0.73,17.5
0.05,0.87,0.08,2.76,0.24,0,1.52914,15.1313,15.922,15.6794,23.2,15.7676,55.2034,15.2714,13.3874,14.5407,14.994,14.139,100.0,30.0,21.4,0.92,0.589,11.8
0.1,0.75,0.15,2.01,0.99,1,1.73,16.2199,16.2199,14.7209,32.0,13.615,154.014,16.3371,16.5949,16.3531,14.994,16.0674,100.0,32.0,18.04,1.13,0.7464,17.3
0.17,0.83,0.0,1.8,1.2,1,1.75,16.2199,16.2199,14.7209,30.0,13.615,176.0,16.3371,16.5949,16.3531,14.994,16.0674,110.0,27.0,19.8,1.2,0.751,17.1
0.1,0.747,0.153,2.49,0.51,1,1.69005,13.7486,13.4883,13.3833,72.6,14.5098,200.62,15.4224,15.0432,14.5407,14.2343,14.001,100.0,60.0,23.5,1.11,0.77,20.0
0.05,0.7125,0.2375,2.1,0.9,0,1.73,15.1313,15.4052,14.6411,21.2,15.7676,94.0034,15.4224,15.0432,14.5407,14.994,14.6717,100.0,30.0,15.0,1.13,0.66,11.2
0.2,0.8,0.0,3.0,0.0,1,1.55,13.7486,13.4883,14.7209,28.0,14.5098,172.0,15.2714,13.3874,14.5407,14.994,14.001,185.0,30.0,20.75,0.7,0.53,7.67
0.05,0.79,0.16,2.7,0.3,0,1.69729,15.1313,15.3099,14.6411,38.0,15.3099,104.02,15.2714,16.5949,16.3531,14.994,16.0674,100.0,60.0,22.4,1.098,0.85,20.8
0.05,0.8,0.15,2.4,0.6,1,1.654,15.1313,15.159,14.7209,42.4,14.4358,102.0,15.4224,16.5949,16.3531,14.994,16.0674,102.0,42.0,16.927,1.14,0.727,14.024
0.05,0.8,0.15,2.85,0.15,1,1.84453,13.7486,15.5699,14.7209,72.6,14.5098,205.6,15.2714,16.5949,16.3531,14.994,16.0674,140.0,31.0,24.02,1.09,0.76,19.93
0.3,0.0,0.7,3.0,0.0,0,1.58,15.1313,11.7704,14.7209,24.0,11.6,198.0,12.109,13.3874,14.5407,11.8135,11.7428,110.0,10.0,5.85,1.04,0.62,3.78
0.0,0.85,0.15,2.55,0.45,1,1.69576,15.1313,15.5699,14.7209,28.0,14.5098,172.0,14.1278,15.0432,14.5407,15.0538,14.001,130.0,30.0,20.92,1.12,0.6557,15.46
0.0,0.85,0.15,2.55,0.45,1,1.68654,15.1313,15.5699,14.7209,28.0,14.5098,172.0,14.1278,15.0432,14.5407,14.2343,14.001,130.0,30.0,22.13,1.15,0.7141,18.17
0.05,0.7885,0.1615,2.49,0.51,1,1.83205,15.1313,15.5699,14.7209,30.0,14.5098,165.0,15.2714,13.3874,14.5407,14.2343,14.001,120.0,10.0,19.96,1.13,0.6966,15.73
0.175,0.75,0.075,2.64,0.36,0,1.68575,15.1313,15.2869,14.7209,23.2,14.9639,55.2034,15.2714,15.0432,14.5407,14.2343,14.001,100.0,30.0,21.24,1.09,0.7757,18.14
0.0,1.0,0.0,2.0,1.0,1,2.27,13.7486,13.4883,13.3833,21.2,14.5098,94.0034,14.1278,15.0432,14.5407,14.2343,14.001,100.0,30.0,3.9,0.99,0.5,1.9
0.05,0.7885,0.1615,2.49,0.51,1,1.69477,13.7486,13.4715,14.7209,34.6,13.615,160.22,14.1278,13.3874,14.5407,14.2343,14.001,100.0,60.0,16.37,0.8,0.51,6.67
0.05,0.7885,0.1615,2.7,0.3,1,1.55,13.7486,15.5699,13.9051,40.6,14.5098,74.0,15.2714,12.719,12.7198,14.994,14.001,100.0,60.0,0.9,18.3,0.58,8.9
0.0,0.0,1.0,2.55,0.45,1,1.53797,13.7486,15.159,14.7209,32.8,14.5098,150.22,14.1278,15.0432,14.5407,14.2343,14.001,100.0,60.0,20.5,1.0254,0.7,14.7
0.05,0.7885,0.1615,2.7,0.3,0,1.58,13.7486,11.7704,14.6411,40.6,13.4624,74.0,15.2714,12.719,14.5407,14.994,14.001,100.0,60.0,0.95,20.0,0.78,15.4
0.0,0.67,0.33,2.5,0.5,1,1.64,13.7486,13.4883,13.3833,24.2,14.5098,59.0034,14.1278,15.0432,14.5407,14.2343,14.001,100.0,30.0,23.7,1.14,0.76,20.7
0.0,0.33,0.67,0.5,2.5,1,2.14,13.7486,13.4883,13.3833,21.2,14.5098,94.0034,14.1278,15.0432,14.5407,14.2343,14.001,100.0,30.0,4.4,0.99,0.66,2.9
0.05,0.83,0.12,2.61,0.39,1,1.61,13.7486,13.4883,13.3833,32.008,14.5098,190.22,14.1278,15.0432,14.5407,14.2343,14.001,100.0,50.0,22.21,1.097,0.785,19.11
1.0,0.0,0.0,3.0,0.0,0,2.05,15.1313,11.7704,14.7209,24.0,11.6,198.0,12.109,13.3874,14.5407,11.8135,11.7428,110.0,10.0,0.26,0.79,0.45,0.09
0.17,0.83,0.0,1.5,1.5,1,1.86,13.7486,15.5699,14.7209,34.6,14.5098,160.22,14.1278,15.0432,14.5407,14.2343,14.001,100.0,60.0,15.1,1.296,0.674,15.01
0.0,0.95,0.05,2.85,0.15,1,1.67593,15.1313,15.5699,14.7209,28.0,14.1095,172.0,14.1278,15.0432,13.6124,14.5968,14.001,120.0,30.0,20.9,0.96,0.681,13.8
0.02,0.38,0.6,2.975,0.025,0,1.73941,15.1313,11.7704,14.7209,24.2,11.6,65.2,14.301,13.3874,14.909,14.994,14.1985,100.0,10.0,21.35,1.0,0.6865,14.66
0.0,0.85,0.15,2.55,0.45,1,1.68654,15.1313,15.5699,14.7209,28.0,14.5098,172.0,14.1278,15.0432,14.5407,14.8168,14.001,130.0,30.0,20.92,1.11,0.7322,17.01
0.0,0.95,0.05,2.85,0.15,1,1.69377,15.1313,15.5699,14.7209,28.0,14.5098,172.0,14.1278,15.0432,14.5407,14.2343,14.001,120.0,30.0,23.4,1.13,0.837,22.2
0.05,0.87,0.08,2.76,0.24,0,1.69576,15.1313,15.922,15.6794,24.2,15.7676,59.0034,15.2714,13.3874,14.5407,14.994,14.8546,100.0,30.0,22.46,0.98,0.783,17.3
0.05,0.87,0.08,2.76,0.24,0,1.69576,15.1313,15.922,15.6794,22.2,15.7676,94.0034,15.2714,13.3874,14.5407,14.994,14.3732,100.0,30.0,20.1,0.99,0.68,13.6
0.05,0.7885,0.1615,2.515,0.4845,0,1.68568,15.1313,15.4052,14.7209,32.8,14.7245,190.22,15.4224,13.3874,14.5407,15.165,14.001,100.0,60.0,21.1,0.94,0.821,16.3
0.05,0.7885,0.1615,2.515,0.4845,0,1.68724,15.1313,15.4052,14.7209,26.208,14.6074,190.22,15.4224,13.3874,14.5407,15.165,14.001,100.0,60.0,21.6,1.09,0.65,15.4
0.0,0.65,0.35,3.0,0.0,0,1.52,15.1313,14.5807,14.7346,23.2,15.0294,104.2,15.2714,15.0432,14.5407,11.8135,14.001,100.0,10.0,19.43,0.98,0.58,11.04
0.05,0.87,0.08,2.76,0.24,0,1.69576,15.1313,15.922,15.6794,24.2,15.0366,59.0034,15.2714,13.3874,14.5407,14.994,15.0507,100.0,30.0,22.92,1.08,0.781,19.2
0.0,0.0,1.0,3.0,0.0,0,1.61,13.7486,11.7704,14.6411,40.6,13.4624,74.0,15.2714,12.719,14.5407,14.994,14.001,100.0,60.0,1.04,18.9,0.79,15.6
0.0,1.0,0.0,3.0,0.0,1,1.48,13.7486,13.4883,14.7209,28.0,14.5098,172.0,15.2714,13.3874,14.5407,14.994,14.001,185.0,30.0,15.28,0.72,0.36,3.94
0.05,0.87,0.08,2.76,0.24,0,1.69576,15.1313,15.922,15.6794,24.2,15.7676,59.0034,15.2714,13.3874,14.5407,14.994,15.0507,100.0,30.0,22.0,1.05,0.766,17.7
0.15,0.85,0.0,3.0,0.0,1,1.60582,15.1313,15.009,14.7209,28.0,14.5098,172.0,15.2714,15.0432,14.5407,14.2343,14.3622,130.0,5.0,21.4,1.12,0.6969,16.7
0.05,0.79,0.15,2.45,0.55,1,1.683195,15.1313,15.5699,14.7209,46.208,14.5098,190.22,14.1278,15.0432,14.5407,14.2343,14.001,100.0,60.0,22.83,1.1,0.7762,18.38
0.0,0.75,0.25,2.49,0.51,1,1.75839,13.7486,13.4883,13.3833,31.0,14.5098,50.0314,14.1278,15.0432,14.5407,14.2343,14.001,100.0,60.0,18.6,0.906,0.6,10.1
0.05,0.0,0.95,3.0,0.0,0,1.51,15.1313,11.7704,14.7209,24.0,11.6,198.0,12.109,13.3874,14.5407,11.8135,11.7428,110.0,10.0,8.69,1.01,0.72,6.29
0.0,0.85,0.15,1.65,1.35,1,1.8,15.1313,15.159,14.7209,22.2,14.5098,139.2,14.1278,13.3874,14.5407,14.2343,14.001,100.0,10.0,17.27,1.12,0.59,11.59
0.05,0.7885,0.1615,2.49,0.51,1,1.69576,13.7486,13.344,14.7209,34.6,13.615,160.22,14.1278,13.3874,14.5407,14.2343,14.001,100.0,60.0,15.97,0.81,0.44,5.69
0.05,0.7885,0.1615,2.49,0.51,1,1.5394,15.1313,15.5699,14.7209,72.6,14.5098,150.428,14.1278,15.0432,14.5407,14.2343,14.001,100.0,60.0,26.04,1.005,0.709,18.58
0.05,0.81,0.14,2.55,0.45,1,1.68568,15.1313,15.5699,14.7209,28.0,14.5098,172.0,14.1278,15.0432,14.5407,14.2343,14.3622,130.0,10.0,20.7,1.05,0.745,16.6
0.06,0.8,0.14,2.58,0.42,1,1.68575,13.7486,15.159,14.7209,24.2,14.5098,55.0034,15.2714,15.0432,14.5407,14.2343,15.4791,100.0,30.0,23.86,1.13,0.818,22.1
0.1,0.747,0.153,2.49,0.51,1,1.60329,13.7486,15.159,14.7209,60.0,14.5098,80.0,14.1278,15.0432,14.5407,14.2343,14.001,110.0,60.0,19.11,1.06,0.6374,12.55
0.0,0.0,1.0,0.5,2.5,1,2.16,13.7486,13.4883,13.3833,21.2,14.5098,133.0034,14.1278,15.0432,14.5407,14.2343,14.001,100.0,30.0,3.0,1.07,1.07,3.5
0.0,0.75,0.25,2.25,0.75,1,1.67,15.1313,15.159,14.7209,23.2,14.5098,104.2,14.1278,13.3874,14.5407,14.2343,14.001,100.0,10.0,20.88,1.05,0.57,15.83
0.0,0.67,0.33,1.0,2.0,1,1.97,13.7486,13.4883,13.3833,21.2,14.5098,94.0034,14.1278,15.0432,14.5407,14.2343,14.001,100.0,30.0,9.5,1.0,0.59,5.6
0.0,0.95,0.05,2.94,0.06,1,1.84453,13.7486,13.4883,13.3833,28.0,14.5098,172.0,14.1278,13.3874,14.5407,14.2343,14.001,150.0,30.0,20.18,0.972,0.665,13.04
0.0,0.85,0.15,2.7,0.3,1,1.55,13.7486,15.5699,13.9051,40.6,14.5098,74.0,15.2714,12.719,12.7198,14.994,14.001,100.0,60.0,0.81,17.0,0.5,6.3
0.13,0.77,0.0,2.46,0.54,1,1.62,16.2199,16.2199,14.7209,38.0,13.615,104.02,16.3371,16.5949,16.3531,14.994,16.0674,104.0,58.0,22.3,1.25,0.8,22.3
0.1,0.76,0.14,2.58,0.42,1,1.68654,13.7486,15.159,14.7209,62.6,14.5098,200.62,14.1278,15.0432,14.5407,14.2343,14.001,100.0,60.0,23.18,1.07,0.783,19.01
0.05,0.7885,0.1615,2.49,0.51,1,1.68558,15.1313,15.5699,14.7209,30.0,14.5098,165.0,15.2714,13.3874,14.5407,14.2343,14.001,120.0,10.0,21.32,1.14,0.7622,18.57
0.05,0.7885,0.1615,2.7,0.3,0,1.69477,14.6984,11.7704,14.9335,26.0,15.0294,26.0,12.109,15.0432,14.5407,14.2343,14.001,100.0,10.0,21.2,1.027,0.76,16.1
0.2,0.664,0.136,1.95,1.05,1,1.77,13.7486,15.5699,13.9051,40.6,14.5098,74.0,15.2714,12.719,14.5407,14.994,14.001,100.0,60.0,1.07,16.5,0.69,12.0
0.2,0.8,0.0,1.95,1.05,0,1.76,13.7486,11.7704,14.6411,28.0,13.4624,172.0,15.2714,12.719,12.7198,14.994,14.001,150.0,30.0,0.91,14.1,0.49,6.3
0.0,0.4,0.6,3.0,0.0,0,1.55,15.1313,15.4052,14.6411,46.208,15.7676,200.62,15.4224,13.3874,14.5407,11.8135,14.9847,100.0,60.0,23.0,1.03,0.77,18.3
0.0,0.5,0.5,1.0,2.0,1,1.96,13.7486,13.4883,13.3833,21.2,14.5098,94.0034,14.1278,15.0432,14.5407,14.2343,14.001,100.0,30.0,12.6,1.03,0.6,7.9
0.05,0.86,0.09,2.91,0.09,1,1.56,13.7486,15.5699,14.7209,72.6,14.5098,200.62,15.2714,15.0432,14.5407,14.2343,14.001,100.0,60.0,23.49,1.041,0.748,18.3
0.15,0.6,0.25,3.0,0.0,1,1.68568,15.1313,15.009,14.7209,26.0,14.5098,120.0,15.2714,15.0432,14.5407,14.2343,14.3622,110.0,5.0,22.81,1.12,0.714,18.24
0.05,0.81,0.14,2.55,0.45,1,1.53691,15.1313,15.5699,14.7209,34.008,14.5098,104.02,16.3371,16.5949,16.3531,14.994,14.001,100.0,52.0,22.5,1.11,0.78,19.4
0.0,0.0,1.0,3.0,0.0,1,1.61,13.7486,15.5699,13.9051,40.6,14.5098,74.0,15.2714,12.719,14.5407,14.994,14.001,100.0,60.0,1.05,21.2,0.74,16.5
0.06,0.8,0.14,2.58,0.42,1,1.68575,13.7486,15.159,14.7209,24.2,14.5098,55.0034,15.2714,15.0432,14.5407,14.2343,15.3321,100.0,30.0,23.53,1.09,0.816,20.97
0.1,0.75,0.15,2.55,0.45,1,1.60329,15.1313,14.6542,14.7209,34.6,14.5098,150.22,15.2714,15.0432,14.5407,14.8646,14.001,100.0,60.0,18.32,1.187,0.7773,15.76
0.0,1.0,0.0,3.0,0.0,1,1.52,13.7486,15.5699,13.9051,28.0,14.5098,172.0,15.2714,12.719,14.5407,14.994,14.001,150.0,30.0,0.95,22.3,0.75,16.1
0.15,0.85,0.0,3.0,0.0,1,1.54,13.7486,13.4883,14.7209,28.0,14.5098,172.0,15.2714,13.3874,14.5407,14.994,14.001,185.0,30.0,22.61,0.86,0.64,12.35
0.05,0.8075,0.1425,2.55,0.45,1,1.69117,13.7486,15.2579,14.7209,72.6,15.228,200.62,14.1278,15.0432,14.5407,14.2343,14.001,100.0,60.0,23.2,1.16,0.76,20.4
0.25,0.5625,0.1875,2.7,0.3,0,1.64,15.1313,15.4052,14.6411,22.2,15.7676,94.0034,15.4224,15.0432,14.5407,14.994,14.6717,100.0,30.0,19.9,1.07,0.805,17.1
0.1,0.9,0.0,3.0,0.0,1,1.60582,15.1313,15.009,14.7209,28.0,14.5098,172.0,15.2714,15.0432,14.5407,14.2343,14.3622,130.0,5.0,20.36,1.11,0.706,15.96
0.05,0.8,0.15,2.55,0.45,1,1.53797,13.7486,15.159,14.7209,34.008,14.5098,190.22,14.1278,15.0432,14.5407,14.2343,14.001,100.0,60.0,22.595,1.065,0.73,17.6
0.4,0.6,0.0,2.1,0.9,0,1.75,15.1313,15.4052,14.6411,21.2,15.7676,98.0034,15.2714,12.719,14.5407,14.994,14.001,100.0,30.0,1.17,17.5,0.8,16.3
0.1,0.9,0.0,3.0,0.0,1,1.55,13.7486,13.4883,14.7209,28.0,14.5098,172.0,15.2714,13.3874,14.5407,15.165,14.1985,150.0,5.0,23.5,1.06,0.663,16.5
0.07,0.9,0.03,2.76,0.24,1,1.68347,13.7486,13.4883,13.3833,28.0,15.247,172.0,14.1278,15.0432,14.5407,14.2343,14.5293,150.0,30.0,22.09,1.11,0.6,14.8
0.1,0.0,0.9,1.8,1.2,0,1.81,15.1313,11.7704,14.6411,22.2,14.5683,139.2,15.2714,13.3874,14.5407,11.8135,14.001,100.0,10.0,1.14,16.9,0.78,15.1
0.0,0.0,1.0,0.0,3.0,1,2.31,13.7486,13.4883,13.3833,21.2,14.5098,94.0034,14.1278,15.0432,14.5407,14.2343,14.001,100.0,30.0,5.9,1.41,0.67,5.6
0.0,0.33,0.67,3.0,0.0,1,1.56,13.7486,13.4883,13.3833,24.2,14.5098,59.0034,14.1278,15.0432,14.5407,14.2343,14.001,100.0,30.0,22.3,1.0,0.65,14.3
0.05,0.8075,0.1425,2.55,0.45,1,1.69576,13.7486,13.4883,13.3833,34.4,14.4994,150.22,14.1278,12.719,14.5407,14.2343,14.001,100.0,60.0,19.41,1.09,0.69,14.57
0.2,0.8,0.0,3.0,0.0,1,1.60582,15.1313,15.009,14.7209,28.0,14.5098,172.0,15.2714,15.0432,14.5407,14.2343,14.3622,130.0,5.0,19.56,1.1,0.6895,14.48
0.05,0.7885,0.1615,2.49,0.51,1,2.31867,13.7486,15.159,14.7209,24.2,14.5098,61.2,15.2714,15.0432,14.5407,14.2343,14.001,100.0,5.0,23.78,1.145,0.7789,21.15
0.05,0.8075,0.1425,2.55,0.45,1,1.69576,13.7486,13.4883,13.3833,34.6,14.1676,150.22,14.1278,12.719,14.5407,14.2343,14.001,100.0,60.0,18.23,1.06,0.62,12.02
0.05,0.7885,0.1615,2.49,0.51,1,1.75682,13.7486,15.159,14.7209,52.0,14.5098,104.0,14.1278,15.0432,14.5407,14.2343,14.001,110.0,50.0,22.28,1.104,0.702,17.28
0.6,0.332,0.068,2.49,0.51,1,1.69576,13.7486,13.4883,13.3833,34.6,14.5098,160.22,14.1278,15.0432,14.5407,14.2343,14.001,100.0,60.0,16.0,0.96,0.7,10.8
0.0,0.17,0.83,2.5,0.5,1,1.63,13.7486,13.4883,13.3833,24.2,14.5098,59.0034,14.1278,15.0432,14.5407,14.2343,14.001,100.0,30.0,22.7,1.04,0.68,16.0
0.05,0.7885,0.1615,2.49,0.51,1,1.63352,15.1313,15.5699,14.7209,52.0,15.2423,104.0,14.1278,15.0432,14.5407,14.2343,14.001,110.0,50.0,22.81,1.152,0.772,20.28
0.05,0.7885,0.1615,0.9,2.1,1,1.69477,15.1313,15.5699,14.7209,22.2,14.5098,139.2,14.1278,15.0432,13.6124,14.2343,14.001,100.0,10.0,10.52,1.13,0.576,6.88
0.0,0.85,0.15,2.25,0.75,1,1.65,15.1313,15.159,14.7209,22.2,14.5098,139.2,14.1278,13.3874,14.5407,14.2343,14.001,100.0,10.0,17.91,1.07,0.64,11.17
0.1,0.9,0.0,3.0,0.0,1,1.53,13.7486,13.4883,14.7209,28.0,14.5098,172.0,15.2714,13.3874,14.5407,14.994,14.001,185.0,30.0,22.25,0.69,0.45,6.82
0.05,0.54,0.41,2.94,0.06,1,1.63836,15.1313,15.5699,14.7209,28.0,14.5098,172.0,14.1278,15.0432,14.5407,14.994,15.4557,150.0,15.0,24.23,1.126,0.8035,21.92
0.0,0.4,0.6,3.0,0.0,1,1.69484,14.0365,14.0365,14.7209,32.0,11.6,159.0,15.2714,15.0432,13.6124,14.2343,16.0674,134.0,17.0,19.6,1.04,0.538,11.0
0.17,0.83,0.0,1.8,1.2,0,1.75,15.1313,15.4052,14.6411,21.2,15.7676,98.0034,15.2714,12.719,14.5407,14.994,14.001,100.0,30.0,1.13,17.4,0.74,14.6
0.05,0.87,0.08,2.76,0.24,0,1.69576,15.1313,15.922,15.6794,24.2,15.7676,55.0034,15.2714,13.3874,14.5407,14.994,15.0107,100.0,30.0,22.54,1.02,0.803,18.5
0.25,0.5625,0.1875,2.49,0.51,0,1.68,15.1313,15.4052,14.6411,21.2,15.7676,94.0034,15.4224,15.0432,14.5407,14.994,14.6717,100.0,30.0,18.1,1.13,0.674,13.8
0.04,0.92,0.04,3.0,0.0,0,1.63836,15.1313,15.922,14.7209,26.2,15.7676,25.0,15.2714,15.0432,14.5407,14.2343,14.001,100.0,15.0,24.03,0.98,0.7495,17.62
0.05,0.87,0.08,2.76,0.24,0,1.69576,15.1313,15.922,15.6794,24.2,15.7676,59.0034,15.2714,13.3874,14.5407,14.994,14.7765,100.0,30.0,22.39,1.04,0.718,16.7
0.06,0.8,0.14,2.58,0.42,1,1.69477,13.7486,15.159,14.7209,24.2,14.5098,59.0034,15.2714,15.0432,14.5407,14.2343,14.001,100.0,30.0,23.06,1.09,0.779,19.61
0.0,0.0,1.0,3.0,0.0,1,1.59,13.7486,13.4883,13.3833,23.2,14.5098,55.2034,14.1278,15.0432,14.5407,14.2343,14.001,100.0,30.0,21.2,0.91,0.54,10.3
0.06,0.79,0.15,2.55,0.45,1,1.59,13.7486,13.4883,13.3833,34.008,14.5098,190.22,14.1278,15.0432,14.5407,14.2343,14.001,100.0,60.0,22.6,1.05,0.73,17.3
0.0,0.4,0.6,3.0,0.0,1,1.53,13.7486,13.4883,13.3833,23.2,14.5098,100.2,14.1278,15.0432,14.5407,11.8135,14.1985,75.0,10.0,21.2,1.003,0.7,14.9
0.05,0.7885,0.1615,2.49,0.51,0,1.63836,13.7486,11.7704,14.7209,34.008,11.6,190.22,15.2714,15.0432,14.5407,14.2343,14.001,100.0,60.0,22.28,0.94,0.72,15.06
0.05,0.8,0.15,1.8,1.2,1,1.768,15.1313,15.159,14.7209,42.4,14.4358,102.0,15.4224,16.5949,16.3531,14.994,16.0674,100.0,44.0,14.899,1.32,0.651,12.803
0.05,0.9,0.05,3.0,0.0,1,1.5483,13.7486,13.4883,13.3833,72.6,14.5098,150.428,14.1278,13.3874,14.5407,14.2343,15.9032,100.0,60.0,25.26,1.153,0.8398,24.46
0.05,0.79,0.16,2.5,0.5,1,1.68654,15.1313,15.159,14.7209,34.6,14.3599,150.22,14.1278,15.0432,14.5407,14.2343,14.001,100.0,60.0,17.36,1.03,0.71,12.77
0.05,0.7885,0.1615,2.49,0.51,1,1.60329,13.7486,13.4883,13.3833,82.0,14.5098,252.0,14.1278,13.3874,14.5407,15.1929,14.001,100.0,60.0,23.6,1.15,0.73,19.9
0.0,0.85,0.15,2.85,0.15,1,1.55,13.7486,15.5699,13.9051,28.0,14.5098,172.0,15.2714,12.719,12.7198,14.994,14.001,150.0,30.0,0.9,18.4,0.46,7.7
1.0,0.0,0.0,1.0,2.0,1,1.84453,13.7486,13.4883,14.7209,28.0,14.5098,172.0,15.2714,15.0432,14.5407,14.994,14.3622,225.0,10.0,11.5,1.26,0.73,10.6
0.05,0.7885,0.1615,2.49,0.51,1,1.60329,13.7486,13.4883,13.3833,80.0,14.5098,250.0,14.1278,13.3874,14.5407,14.2343,14.001,100.0,60.0,23.5,1.11,0.77,20.1
0.05,0.7885,0.1615,0.0,3.0,1,1.69757,15.1313,15.5699,14.7209,22.2,14.5098,139.2,14.1278,15.0432,13.6124,14.2343,14.001,100.0,10.0,6.01,1.31,0.5524,4.36
0.05,0.8,0.15,2.55,0.45,1,1.69477,13.7486,13.4883,14.7209,34.008,14.5098,190.22,14.1278,13.3874,14.5407,14.2343,14.9508,100.0,60.0,22.31,1.085,0.76,18.04
0.0,0.67,0.33,1.5,1.5,1,1.85,13.7486,13.4883,13.3833,21.2,14.5098,94.0034,14.1278,15.0432,14.5407,14.2343,14.001,100.0,30.0,15.3,1.11,0.69,11.7
0.065,0.6545,0.2805,2.67,0.33,1,1.5274,15.1313,15.5699,14.7209,28.0,14.2782,172.0,12.109,15.0432,14.5407,14.994,14.001,150.0,15.0,21.12,1.02,0.6057,12.87
0.0,0.0,1.0,3.0,0.0,1,1.59,13.7486,15.5699,13.9051,40.6,14.5098,74.0,15.2714,12.719,14.5407,14.994,14.1985,100.0,60.0,1.01,21.4,0.66,14.6
0.05,0.76,0.19,2.45,0.6,1,1.572,13.7486,15.159,14.7209,72.6,14.5098,200.62,14.1278,15.0432,14.5407,14.2343,14.001,100.0,60.0,23.29,1.156,0.765,20.6
0.05,0.8075,0.1425,2.6,0.45,1,1.546,13.7486,15.159,14.7209,72.6,14.5098,200.62,14.1278,15.0432,14.5407,14.2343,14.001,100.0,60.0,23.61,1.135,0.777,20.7
0.0,0.17,0.83,1.0,2.0,1,1.99,13.7486,13.4883,13.3833,21.2,14.5098,94.0034,14.1278,15.0432,14.5407,14.2343,14.001,100.0,30.0,5.1,0.94,0.74,3.5
0.0,0.85,0.15,2.85,0.15,1,1.55,15.1313,15.159,14.7209,23.2,14.5098,104.2,14.1278,13.3874,14.5407,14.2343,14.001,100.0,10.0,20.96,1.01,0.61,14.29
0.0,0.85,0.15,2.55,0.45,1,1.69757,13.7486,14.9977,14.7209,32.6,14.5098,190.22,14.1278,15.0432,14.5407,14.2343,14.001,100.0,60.0,21.3,1.14,0.74,18.4
0.0,0.5,0.5,3.0,0.0,1,1.55,13.7486,13.4883,13.3833,22.2,14.5098,94.0034,14.1278,15.0432,14.5407,14.2343,14.001,100.0,30.0,19.6,0.96,0.68,12.8
0.0,0.83,0.17,2.49,0.51,1,1.60329,13.7486,15.159,14.7209,60.0,14.5098,80.0,14.1278,15.0432,14.5407,14.2343,14.001,110.0,60.0,8.507,1.02,0.4096,3.57
0.05,0.81,0.14,2.55,0.45,1,1.57,16.2199,16.2199,14.7209,39.0,13.615,106.0,16.3371,16.5949,16.3531,14.994,16.0674,110.0,44.0,22.16,1.23,0.78,21.1
0.05,0.7885,0.1615,2.7,0.3,0,1.69576,15.1313,11.7704,14.9335,25.0,15.0294,45.0,12.109,15.0432,14.5407,14.2343,14.001,100.0,10.0,22.2,1.024,0.75,17.0
0.33,0.33,0.33,2.4,0.6,1,1.68575,13.7486,13.4883,13.3833,40.0,14.5098,50.0,14.1278,15.0432,14.5407,14.2343,14.001,100.0,60.0,18.43,1.05,0.48,9.3
0.0,0.85,0.15,3.0,0.0,1,1.6744,13.7486,13.4883,13.3833,52.0,14.5098,104.0,14.1278,13.3874,14.5407,11.8135,14.3622,150.0,60.0,15.66,0.805,0.598,7.53
0.05,0.7885,0.1615,2.49,0.51,1,1.60329,13.7486,13.3948,14.7209,34.6,13.615,160.22,14.1278,13.3874,14.5407,14.2343,14.001,100.0,60.0,15.14,0.82,0.49,6.08
0.02,0.38,0.6,2.975,0.025,0,1.5274,15.1313,11.7704,14.7209,24.2,11.6,61.2,14.301,13.3874,13.6124,14.994,14.1985,100.0,10.0,21.75,0.98,0.5476,11.67
0.02,0.38,0.6,2.975,0.026,0,1.60329,15.1313,11.7704,14.7209,22.2,11.6,139.2,14.1988,13.3874,13.6124,14.994,14.1985,100.0,10.0,17.59,0.94,0.7418,12.26
0.05,0.7885,0.1615,2.49,0.51,1,1.69477,13.7486,13.3895,14.7209,34.6,13.615,160.22,14.1278,13.3874,14.5407,14.2343,14.001,100.0,60.0,16.09,0.8,0.47,6.04
0.0,1.0,0.0,3.0,0.0,1,1.6848,13.7486,13.4883,13.3833,52.0,14.5098,104.0,14.1278,13.3874,14.5407,11.8135,14.3622,150.0,60.0,17.55,0.802,0.655,9.22
0.0,0.67,0.33,3.0,0.0,1,1.53,13.7486,13.4883,13.3833,24.2,14.5098,59.0034,14.1278,15.0432,14.5407,14.2343,14.001,100.0,30.0,22.7,0.97,0.63,13.9
0.0,0.85,0.15,2.55,0.45,1,1.69576,15.1313,15.5699,14.7209,28.0,14.5098,172.0,14.1278,15.0432,14.5407,14.7999,14.001,130.0,30.0,21.68,1.14,0.6744,16.88
0.05,0.87,0.08,2.76,0.24,0,1.69576,15.1313,15.922,15.6794,24.2,15.7676,59.0034,15.2714,13.3874,14.5407,14.994,14.7114,100.0,30.0,22.74,0.97,0.738,16.2
0.0,0.83,0.17,3.0,0.0,1,1.53,13.7486,13.4883,13.3833,23.2,14.5098,55.2034,14.1278,15.0432,14.5407,14.2343,14.001,100.0,30.0,21.5,0.92,0.61,12.1
0.0,0.33,0.67,2.5,0.5,1,1.67,13.7486,13.4883,13.3833,22.2,14.5098,94.0034,14.1278,15.0432,14.5407,14.2343,14.001,100.0,30.0,18.7,0.91,0.64,11.0
0.0,0.0,1.0,3.0,0.0,1,1.6,15.1313,14.5807,14.7209,32.0,14.191,159.0,14.1278,14.3084,16.3531,14.994,16.0674,120.0,23.0,19.6,1.094,0.812,17.4
0.06,0.8,0.14,2.58,0.42,1,1.68575,13.7486,15.159,14.7209,24.2,14.5098,55.0034,15.2714,15.0432,14.5407,14.2343,15.3841,100.0,30.0,23.65,1.1,0.814,21.37
0.05,0.79,0.15,2.45,0.55,1,1.69576,13.7486,13.4883,13.3833,34.008,14.5098,190.22,14.1278,15.0432,14.5407,14.2343,14.001,100.0,60.0,22.43,1.08,0.8048,19.5
0.05,0.7885,0.1615,2.49,0.51,1,1.55154,15.1313,15.5699,14.7209,72.6,14.5098,150.428,14.1278,15.0432,14.5407,14.8642,14.001,100.0,60.0,25.54,1.006,0.723,18.58
0.0,0.3,0.7,0.15,2.85,0,1.6,15.1313,14.5807,14.7346,23.2,15.0294,104.2,15.2714,15.0432,14.5407,11.8135,14.001,100.0,10.0,20.48,1.06,0.77,16.72
0.07,0.79,0.14,2.49,0.51,0,1.69218,15.1313,11.7704,14.7209,25.008,11.6,82.2,13.9178,14.101,16.3531,14.994,16.0674,100.0,24.0,21.7,0.93,0.49,10.1
0.05,0.7885,0.1615,2.49,0.51,1,1.5016,13.7486,13.4883,13.3833,68.6,14.5098,140.4174,14.1278,13.3874,14.5407,14.2343,15.4062,100.0,45.0,24.4,1.185,0.745,21.54
0.17,0.83,0.0,1.8,1.2,0,1.84453,15.1313,15.4052,14.6411,28.0,14.8155,172.0,15.2714,16.5949,14.5407,14.8642,15.0365,150.0,10.0,17.2,1.25,0.78,17.0
0.3,0.7,0.0,3.0,0.0,1,1.680154,13.7486,13.4883,14.7209,28.0,14.5098,172.0,15.2714,12.719,14.5407,11.8135,14.001,170.0,10.0,19.46,1.04,0.73,14.8
0.2,0.8,0.0,3.0,0.0,1,1.574,13.7486,15.5699,13.9051,28.0,14.5098,172.0,14.1278,13.3874,14.5407,15.165,14.001,150.0,10.0,21.73,1.03,0.7237,16.18
0.175,0.75,0.075,2.64,0.36,1,1.57,13.7486,13.4883,13.3833,24.2,14.5098,61.0,14.1278,15.0432,14.5407,14.2343,14.001,100.0,20.0,21.88,1.124,0.75,18.45
0.0,0.85,0.15,1.95,1.05,1,1.72,15.1313,15.159,14.7209,22.2,14.5098,139.2,14.1278,13.3874,14.5407,14.2343,14.001,100.0,10.0,17.86,1.1,0.65,12.11
0.05,0.7885,0.1615,2.49,0.51,1,1.63352,15.1313,15.5699,14.7209,52.0,15.3906,104.0,14.1278,15.0432,14.5407,14.2343,14.001,110.0,50.0,23.74,1.16,0.778,21.42
0.05,0.7125,0.2375,2.7,0.3,0,1.6,15.1313,15.4052,14.6411,22.2,15.7676,94.0034,15.4224,15.0432,14.5407,14.994,14.6717,100.0,30.0,20.8,1.08,0.767,17.3
0.05,0.9025,0.0475,2.9,0.15,1,1.503,13.7486,15.159,14.7209,72.6,14.5098,150.428,14.1278,15.0432,14.5407,14.2343,14.001,100.0,60.0,24.69,1.126,0.768,21.4
0.05,0.7885,0.1615,2.49,0.51,1,1.69005,13.7486,15.159,15.2176,52.0,14.5098,104.0,14.1278,15.0432,14.5407,14.2343,14.001,110.0,50.0,23.65,1.184,0.71,20.09
0.05,0.8,0.15,2.52,0.48,1,1.6312,15.1313,15.159,14.7209,46.2,14.4358,91.0,15.4224,16.5949,16.3531,14.994,16.0674,102.0,38.6,18.503,1.1,0.739,15.054
0.0,0.0,1.0,2.5,0.5,1,1.66,13.7486,13.4883,13.3833,21.2,14.5098,94.0034,14.1278,15.0432,14.5407,14.2343,14.001,100.0,30.0,18.3,1.1,0.66,13.2
0.05,0.87,0.08,2.76,0.24,0,1.54726,15.1313,15.922,15.6794,24.2,15.7676,55.0034,15.2714,13.3874,14.5407,14.994,15.0367,100.0,30.0,22.06,1.07,0.798,18.7
0.0,0.4,0.6,3.0,0.0,1,1.69576,13.7486,15.159,14.7209,44.2,14.5098,108.0,14.1278,13.3874,14.5407,14.994,16.0674,110.0,39.6,18.96,0.992,0.692,13.4
0.05,0.8,0.15,2.55,0.45,1,1.63,16.2199,16.2199,14.7209,46.208,13.615,149.22,16.3371,16.5949,16.3531,14.994,16.0674,104.0,47.0,22.8,1.24,0.78,22.1
0.0,0.83,0.17,2.49,0.51,1,1.60329,13.7486,13.4883,13.3833,80.0,14.5098,250.0,14.1278,13.3874,14.5407,14.2343,14.001,100.0,60.0,23.7,1.11,0.77,20.1
0.17,0.83,0.0,1.8,1.2,0,1.68654,15.1313,15.4052,14.6411,21.2,14.4252,94.0034,15.2714,16.5949,14.5407,14.8642,14.001,100.0,30.0,16.7,1.13,0.79,14.0
0.0,0.6,0.4,3.0,0.0,0,1.54,15.1313,14.5807,14.7346,23.2,15.0294,104.2,15.2714,15.0432,14.5407,11.8135,14.001,100.0,10.0,20.38,0.99,0.65,13.11
0.05,0.79,0.16,2.5,0.5,1,1.68654,15.1313,15.159,14.7209,34.4,14.3599,150.22,14.1278,15.0432,14.5407,14.2343,14.476,100.0,60.0,19.4,1.04,0.71,14.39
0.05,0.7885,0.1615,2.49,0.51,1,1.60329,13.7486,13.3635,14.7209,34.6,13.615,160.22,14.1278,13.3874,14.5407,14.2343,14.001,100.0,60.0,14.98,0.83,0.47,5.84
0.0,0.83,0.17,1.0,2.0,1,1.98,13.7486,13.4883,13.3833,21.2,14.5098,94.0034,14.1278,15.0432,14.5407,14.2343,14.001,100.0,30.0,11.1,0.98,0.54,5.8
0.05,0.79,0.16,3.0,0.0,1,1.68558,13.7486,13.4883,13.3833,46.208,14.3888,200.62,14.1278,15.0432,14.5407,14.2343,14.3888,100.0,60.0,22.96,0.944,0.633,13.72
0.05,0.79,0.15,2.45,0.55,1,1.54116,15.1313,13.4883,13.3833,26.208,14.5098,190.22,14.1278,15.0432,14.5407,14.2343,14.001,100.0,60.0,21.61,1.09,0.6463,15.23
0.06,0.8,0.14,2.58,0.42,1,1.68575,13.7486,15.159,14.7209,24.2,14.5098,55.0034,15.2714,15.0432,14.5407,14.2343,15.2826,100.0,30.0,23.83,1.09,0.792,20.59
0.0,1.0,0.0,0.0,3.0,1,2.27,13.7486,13.4883,13.3833,21.2,14.5098,94.0034,14.1278,15.0432,14.5407,14.2343,14.001,100.0,30.0,7.5,1.14,0.58,5.0
0.4,0.498,0.102,2.49,0.51,1,1.69576,13.7486,13.4883,13.3833,34.6,14.5098,150.22,14.1278,15.0432,14.5407,14.2343,14.001,100.0,60.0,18.3,1.01,0.71,13.1
0.15,0.85,0.0,2.85,0.15,1,1.59,13.7486,15.5699,13.9051,28.0,14.5098,172.0,15.2714,12.719,14.5407,14.994,14.001,150.0,30.0,0.98,21.5,0.7,14.7
0.2,0.8,0.0,1.95,1.05,1,1.76,13.7486,15.5699,13.9051,28.0,14.5098,172.0,15.2714,12.719,14.5407,14.994,14.001,150.0,30.0,1.08,16.9,0.7,12.5
0.08,0.8004,0.1196,2.641,0.3588,1,1.60329,13.7486,13.4883,13.3833,72.6,14.5098,200.614,15.4224,15.0432,14.5407,14.2343,14.001,100.0,60.0,24.13,1.1,0.676,17.82
0.0,0.65,0.35,1.95,1.05,1,1.73,15.1313,15.159,14.7209,22.2,14.5098,139.2,14.1278,13.3874,14.5407,14.2343,14.001,100.0,10.0,18.5,1.09,0.68,13.95
0.05,0.7885,0.1615,2.49,0.51,1,1.52914,13.7486,15.159,14.7209,52.0,14.7505,104.0,15.2714,13.3874,14.5407,14.2343,14.001,110.0,60.0,21.9,1.09,0.681,16.5
0.05,0.88,0.07,3.0,0.0,0,1.84453,13.7486,11.7704,14.6411,24.2,15.764,64.0,15.2714,13.3874,14.5407,15.764,14.001,100.0,15.0,25.08,1.167,0.8401,24.29
0.05,0.7885,0.1615,2.49,0.51,1,1.69576,13.7486,14.8921,14.7209,72.6,14.5098,150.428,14.1278,13.3874,14.909,14.9847,14.001,100.0,60.0,24.8,1.1,0.696,18.3
0.25,0.5625,0.1875,2.28,0.72,0,1.72,15.1313,15.4052,14.6411,21.2,15.7676,94.0034,15.4224,15.0432,14.5407,14.994,14.6717,100.0,30.0,17.9,1.12,0.764,15.3
0.05,0.875,0.075,2.835,0.225,1,1.68575,13.7486,13.4883,13.3833,52.0,15.4975,104.0,14.1278,15.0432,14.5407,14.2343,15.4921,120.0,60.0,24.57,1.13,0.8,22.2
0.7,0.3,0.0,3.0,0.0,1,1.675392,13.7486,13.4883,14.7209,28.0,14.5098,172.0,15.2714,12.719,14.5407,11.8135,14.001,170.0,10.0,18.08,1.0,0.56,10.2
0.175,0.75,0.075,2.64,0.36,0,1.52576,15.1313,11.7704,14.9335,24.2,15.0294,65.2,15.2714,15.0432,14.5407,14.994,14.001,100.0,10.0,21.3,1.06,0.7695,17.42
0.05,0.7885,0.1615,2.49,0.51,1,1.52658,13.7486,13.534,14.7209,34.6,13.615,150.22,14.1278,13.3874,14.5407,14.2343,14.001,100.0,60.0,16.98,0.78,0.54,7.15