File: TCP_ML/without_fill/encoded_PCE.csv
Cs,FA,MA,I,Br,structure,bandgap,substrate,ETL,ETL-2,ETLthickness,HTL,HTLthickness,electrode,depositionProcedure,depositionMethod,Anti-solvent,PrecursorSolvent,AnnealingTemperature,AnnealingTime,Jsc,Voc,FF,PCE
0.06,0.45,0.49,1.86,0.96,1,1.8,13.7486,15.5699,,,14.5098,,13.5675,13.3874,14.5407,,14.001,100.0,30.0,12.1,1.05,0.49,7.2
0.06,0.45,0.49,1.86,0.96,1,1.8,13.7486,15.5699,,,14.5098,,13.5675,13.3874,13.7226,14.2343,14.001,100.0,30.0,13,1.05,0.51,8.6
0.25,0.5625,0.1875,2.1,0.9,0,1.76,15.1313,15.4382,14.6411,,15.7676,,15.4224,15.0432,14.5407,,14.6717,100.0,30.0,16.7,1.17,0.696,13.6
0.15,0.6375,0.2125,2.1,0.9,0,1.74,15.1313,15.4382,14.6411,,15.7676,,15.4224,15.0432,14.5407,,14.6717,100.0,30.0,18,1.11,0.719,14.4
0.1,0.75,0.15,2.01,0.99,1,1.73,,,,,,,,,,,,,,,1.13,,17.3
0.15,0.6375,0.2125,2.28,0.72,0,1.71,15.1313,15.4382,14.6411,,15.7676,,15.4224,15.0432,14.5407,,14.6717,100.0,30.0,18.7,1.09,0.724,14.9
0.15,0.7055,0.1445,2.1,0.9,1,1.7,,,,,,,,,,,,,,18.7,1.19,0.802,18.6
0.05,0.7125,0.2375,2.28,0.72,0,1.68,15.1313,15.4382,14.6411,,15.7676,,15.4224,15.0432,14.5407,,14.6717,100.0,30.0,17.5,1.11,0.733,14.3
0.25,0.5625,0.1875,2.49,0.51,0,1.68,15.1313,15.4382,14.6411,,15.7676,,15.4224,15.0432,14.5407,,14.6717,100.0,30.0,18.1,1.13,0.674,13.8
0.05,0.7125,0.2375,2.4,0.6,0,1.67,15.1313,15.4382,14.6411,,15.7676,,15.4224,15.0432,14.5407,,14.6717,100.0,30.0,18.8,1.11,0.714,14.9
0.05,0.8,0.15,2.4,0.6,1,1.654,15.1313,15.159,,,14.4358,,15.4224,,,,,,,16.927,1.14,0.727,14.024
0.05,0.7125,0.2375,2.49,0.51,0,1.65,15.1313,15.4382,14.6411,,15.7676,,15.4224,15.0432,14.5407,,14.6717,100.0,30.0,19.5,1.07,0.704,14.6
0.05,0.8,0.15,2.25,0.75,1,1.65,,,,,,,,,,,,,,21.2,1.22,0.76,20.8
0.1,0.36,0.54,2.8,0.2,1,1.647,13.7486,15.159,14.408,,14.1593,,13.5675,15.0432,14.5407,,14.001,100.0,30.0,17.63,0.903,0.6637,10.57
0.05,0.8,0.15,2.52,0.48,1,,15.1313,15.159,,,14.4358,,15.4224,,,,,,,18.503,1.1,0.739,15.054
0.15,0.6375,0.2125,2.7,0.3,0,1.63,15.1313,15.4382,14.6411,,15.7676,,15.4224,15.0432,14.5407,,14.6717,100.0,30.0,21.2,1.06,0.722,16.2
0.05,0.8,0.15,2.55,0.45,1,1.63,,,,,,,,,,,,,,22.8,1.24,0.78,22.1
0.13,0.77,0.0,2.46,0.54,1,1.62,,,,,,,,,,,,,,22.3,1.25,0.8,22.3
0.05,0.7885,0.1615,2.49,0.51,1,1.6,13.7486,15.159,,0.04,15.1551,0.1,15.1551,15.0432,14.5407,14.2343,14.9947,100.0,60.0,22.68,1.14,0.76,19.61
0.05,0.7125,0.2375,2.7,0.3,0,1.6,15.1313,15.4382,14.6411,,15.7676,,15.4224,15.0432,14.5407,,14.6717,100.0,30.0,20.8,1.08,0.767,17.3
0.05,0.8,0.15,2.7,0.3,1,1.59,15.1313,15.2869,,,15.4778,,15.2714,15.0432,14.5407,14.2343,15.4778,115.0,20.0,23.12,1.16,0.8237,22.09
0.175,0.75,0.075,2.64,0.36,1,1.57,13.7486,13.4883,13.5496,,14.5098,,14.1278,15.0432,14.5407,14.2343,14.001,100.0,20.0,21.88,1.124,0.75,18.45
0.05,0.8,0.15,2.85,0.15,1,1.5685,15.1313,15.159,,,14.4358,,15.4224,,,,,,,18.875,1.02,0.769,14.812
0.05,0.86,0.09,2.91,0.09,1,1.56,13.7486,15.5699,,,14.5098,,15.2714,15.0432,14.5407,14.2343,14.001,100.0,60.0,23.49,1.041,0.748,18.3
0.05,0.7885,0.1615,2.79,0.21,1,1.55,13.9959,15.5699,,,14.1095,,13.9959,15.0432,14.5407,14.2343,14.001,150.0,15.0,19.7,0.9,0.57,10.7
0.05,0.8075,0.1425,2.6,0.45,1,1.546,13.7486,15.159,,,14.5098,,14.1278,15.0432,14.5407,14.2343,14.001,100.0,60.0,23.61,1.135,0.777,20.7
0.03,0.9409,0.0291,2.91,0.09,1,1.53,,,,,,,,,,,,,,24.6,1.21,0.8,23.8
0.05,0.95,0.0,3.05,0.0,1,,13.7486,15.159,,,14.5098,,14.1278,15.0432,14.5407,14.2343,14.001,100.0,60.0,25.45,1.09,0.727,20.1
0.05,0.9,0.05,3.0,0.0,1,,13.7486,13.4883,13.5496,,14.5098,0.07,14.1278,15.0432,14.5407,15.8536,15.9032,100.0,60.0,25.26,1.15,0.84,24.46
0.05,0.7885,0.1615,2.49,0.51,1,,15.1313,15.5699,,30.0,14.5098,165.0,15.2714,13.3874,14.5407,14.2343,14.001,120.0,0.0,20.17,1.12,0.6634,15.03
0.05,0.7885,0.1615,2.49,0.51,1,,15.1313,15.5699,,30.0,14.5098,165.0,15.2714,13.3874,14.5407,14.2343,14.001,120.0,5.0,20.01,1.14,0.7694,17.48
0.05,0.7885,0.1615,2.49,0.51,1,,15.1313,15.5699,,30.0,14.5098,165.0,15.2714,13.3874,14.5407,14.2343,14.001,120.0,15.0,20.91,1.14,0.7513,17.97
0.05,0.7885,0.1615,2.49,0.51,1,,15.1313,15.5699,,30.0,14.5098,165.0,15.2714,13.3874,14.5407,14.2343,14.001,120.0,10.0,19.96,1.13,0.6966,15.73
0.16,0.8,0.04,1.5,1.5,0,,13.7486,11.945,14.6411,,15.7676,,15.2714,13.3874,14.5407,14.2343,14.001,100.0,15.0,17.64,1.22,0.73,15.7
0.05,0.79,0.16,2.7,0.3,0,,15.1313,11.945,14.6411,,15.3099,,15.2714,,,,,,,22.4,1.098,0.85,20.8
0.05,0.7885,0.1615,2.49,0.51,1,,13.7486,15.159,,,14.7505,,15.2714,13.3874,14.5407,14.2343,14.001,110.0,60.0,21.9,1.09,0.681,16.5
0.05,0.7885,0.1615,2.49,0.51,1,,13.7486,15.159,,,13.4104,,15.2714,13.3874,14.5407,14.2343,14.001,110.0,60.0,18.9,0.79,0.434,6.2
0.06,0.79,0.15,2.55,0.45,1,,13.7486,13.4883,13.5496,,14.5098,,14.1278,15.0432,14.5407,14.2343,14.001,100.0,60.0,22.95,1.121,0.78,20.0
0.05,0.7885,0.1615,2.49,0.51,1,,15.1313,15.5699,,,14.5098,,14.1278,15.0432,13.6124,14.2343,14.001,100.0,10.0,20.62,1.05,0.7605,16.51
0.05,0.7885,0.1615,1.5,1.5,1,,15.1313,15.5699,,,14.5098,,14.1278,15.0432,13.6124,14.2343,14.001,100.0,10.0,15.05,1.12,0.6427,10.81
0.05,0.7885,0.1615,0.0,3.0,1,,15.1313,15.5699,,,14.5098,,14.1278,15.0432,13.6124,14.2343,14.001,100.0,10.0,6.01,1.31,0.5524,4.36
0.07,0.79,0.14,2.49,0.51,0,,15.1313,11.945,,,11.6,,13.9178,14.101,,,,,,21.7,0.93,0.49,10.1
0.0,0.4,0.6,3.0,0.0,1,,14.0365,14.0365,,,14.1095,,15.2714,15.0432,13.6124,14.2343,,,,20.6,1.05,0.536,11.6
0.0,0.0,1.0,3.0,0.0,1,,15.1313,15.5699,,20.0,14.5098,220.0,15.2714,15.0432,14.5407,14.2343,14.001,100.0,10.0,20.1,1.05,0.688,14.6
0.15,0.85,0.0,2.55,0.45,1,,15.1313,15.5699,,,14.5098,,14.1278,15.0432,13.6124,14.2343,14.5813,100.0,30.0,15.2,1.029,0.715,15.2
0.0,0.95,0.05,2.85,0.15,1,,15.1313,15.5699,,,14.5098,,14.1278,15.0432,13.6124,14.5968,14.001,120.0,30.0,22,1.02,0.744,16.7
0.0,0.95,0.05,2.85,0.15,1,,15.1313,15.5699,,,14.5098,,14.1278,15.0432,14.5407,14.2343,14.001,120.0,30.0,23.4,1.13,0.837,22.2
0.02,0.38,0.6,2.975,0.025,0,,15.1313,11.945,,,11.6,,14.301,13.3874,13.6124,,14.1985,100.0,10.0,21.75,0.98,0.5476,11.67
0.05,0.7885,0.1615,2.54,0.51,1,,13.7486,15.159,,,14.5098,,14.1278,15.0432,14.5407,14.2343,14.001,100.0,60.0,23.6,1.129,0.767,20.6
0.33,0.33,0.33,2.4,0.6,1,,13.7486,13.4883,13.5496,40.0,14.5098,50.0,14.1278,15.0432,14.5407,14.2343,14.001,100.0,60.0,18.43,1.05,0.48,9.3
0.05,0.7885,0.1615,2.49,0.51,1,,13.7486,13.4883,13.5496,30.0,14.5098,,14.1278,15.0432,14.5407,14.2343,14.001,100.0,60.0,22.7,1.109,0.74,18.6
0.15,0.7055,0.1445,2.49,0.51,1,,13.7486,13.4883,13.5496,30.0,14.5098,,14.1278,15.0432,14.5407,14.2343,14.001,100.0,60.0,19.4,1.088,0.69,14.6
0.05,0.75,0.2,2.49,0.51,1,,13.7486,13.4883,13.5496,32.0,14.5098,,14.1278,15.0432,14.5407,14.2343,14.001,100.0,60.0,17.9,0.913,0.52,8.5
0.15,0.75,0.1,2.49,0.51,1,,13.7486,13.4883,13.5496,31.0,14.5098,,14.1278,15.0432,14.5407,14.2343,14.001,100.0,60.0,21.1,1.06,0.75,16.8
0.25,0.75,0.0,2.49,0.51,1,,13.7486,13.4883,13.5496,31.0,14.5098,,14.1278,15.0432,14.5407,14.2343,14.001,100.0,60.0,20.7,1.045,0.66,14.3
0.04,0.92,0.04,3.0,0.0,0,,15.1313,15.922,,,15.7676,25.0,15.2714,15.0432,14.5407,15.3464,14.001,100.0,15.0,24.79,1.05,0.8176,21.08
0.05,0.81,0.14,2.55,0.45,1,,15.1313,15.5699,,,14.5098,,14.1278,15.0432,14.5407,14.2343,14.3622,130.0,10.0,20.7,1.05,0.745,16.6
0.05,0.79,0.15,2.45,0.55,1,,15.1313,15.5699,,,14.5098,,14.1278,15.0432,14.5407,14.2343,14.001,100.0,60.0,22.83,1.1,0.7762,18.38
0.175,0.75,0.075,2.64,0.36,0,,15.1313,11.945,14.9335,,15.0294,,15.2714,15.0432,14.5407,15.1018,14.001,100.0,10.0,21.6,1.12,0.7905,19.2
0.05,0.7885,0.1615,2.49,0.51,1,,13.7486,13.4883,13.5496,,14.5098,,14.1278,13.3874,14.5407,14.2343,14.001,100.0,45.0,22.73,1.107,0.72,18.12
0.05,0.7885,0.1615,2.49,0.51,1,,15.1313,15.5699,,,14.5098,,14.1278,15.0432,14.5407,14.2343,14.001,100.0,60.0,26.04,1.005,0.709,18.58
0.1,0.747,0.153,2.49,0.51,1,,15.1313,15.5699,,,14.5098,,14.1278,15.0432,14.5407,14.2343,14.001,100.0,60.0,23.79,0.984,0.818,19.15
0.05,0.9,0.05,3.0,0.0,1,,13.7486,13.4883,13.5496,,14.5098,,14.1278,13.3874,14.5407,14.2343,14.001,100.0,60.0,25.32,1.122,0.8365,23.76
0.05,0.81,0.14,2.55,0.45,1,,15.1313,15.2215,14.408,,14.5098,,14.1278,13.3874,14.5407,,14.001,120.0,10.0,24.1,1.16,0.72,20.12
0.05,0.7885,0.1615,2.49,0.51,1,,13.7486,15.159,15.2176,,14.5098,,14.1278,15.0432,14.5407,14.2343,14.001,110.0,50.0,23.65,1.184,0.71,20.09
0.05,0.915,0.085,2.745,0.255,1,,13.7486,13.4883,13.5496,,14.5098,,14.1278,13.3874,14.5407,,14.001,100.0,3.0,20.6,1.084,0.625,14.0
0.05,0.745,0.255,2.235,0.765,1,,13.7486,13.4883,13.5496,,14.5098,,14.1278,13.3874,14.5407,,14.001,100.0,3.0,18.56,1.016,0.6116,11.54
0.05,0.87,0.08,2.76,0.24,0,,15.1313,15.922,15.6794,,15.7676,,15.2714,13.3874,14.5407,,14.001,100.0,30.0,21.86,1.0,0.77,16.9
0.05,0.87,0.08,2.76,0.24,0,,15.1313,15.922,15.6794,,15.0366,,15.2714,13.3874,14.5407,,14.8167,100.0,30.0,22.83,1.035,0.712,16.3
0.05,0.87,0.08,2.76,0.24,0,,15.1313,15.922,15.6794,,15.0294,,15.2714,13.3874,14.5407,,14.001,100.0,30.0,21.82,0.87,0.783,14.8
0.05,0.87,0.08,2.76,0.24,0,,15.1313,15.922,15.6794,,15.0366,,15.2714,13.3874,14.5407,,15.0507,100.0,30.0,22.92,1.08,0.781,19.2
0.05,0.87,0.08,2.76,0.24,0,,15.1313,15.922,15.6794,,15.7676,,15.2714,13.3874,14.5407,,14.8167,100.0,30.0,22.16,1.05,0.75,17.3
0.05,0.87,0.08,2.76,0.24,0,,15.1313,15.922,15.6794,,15.7676,,15.2714,13.3874,14.5407,,14.9717,100.0,30.0,21.93,1.02,0.802,18.2
0.05,0.87,0.08,2.76,0.24,0,,15.1313,15.922,15.6794,,15.7676,,15.2714,13.3874,14.5407,,15.0507,100.0,30.0,22,1.05,0.766,17.7
0.05,0.87,0.08,2.76,0.24,0,,15.1313,15.922,15.6794,,15.7676,,15.2714,13.3874,14.5407,,14.7114,100.0,30.0,22.74,0.97,0.738,16.2
0.05,0.87,0.08,2.76,0.24,0,,15.1313,15.922,15.6794,,15.7676,,15.2714,13.3874,14.5407,,14.3732,100.0,30.0,20.1,0.99,0.68,13.6
0.05,0.87,0.08,2.76,0.24,0,,15.1313,15.922,15.6794,,15.7676,,15.2714,13.3874,14.5407,,14.9456,100.0,30.0,22.25,1.05,0.759,18.0
0.0,0.0,1.0,2.55,0.45,1,,13.7486,15.159,,,14.5098,,14.1278,15.0432,14.5407,14.2343,14.001,100.0,60.0,20.5,1.0254,0.7,14.7
0.05,0.8,0.15,2.55,0.45,1,,13.7486,15.159,,,14.5098,,14.1278,15.0432,14.5407,14.2343,14.001,100.0,60.0,22.595,1.065,0.73,17.6
0.05,0.8,0.15,2.55,0.45,1,,13.7486,15.159,,,14.5098,,14.1278,15.0432,14.5407,14.2343,15.2904,100.0,60.0,23.215,1.162,0.765,20.65
0.05,0.79,0.16,2.45,0.55,1,,13.7486,13.4883,13.5496,,14.5098,,14.1278,,,,,,,18.85,1.09,0.6975,14.32
0.0,0.83,0.17,2.49,0.51,1,,13.7486,13.4883,13.5496,,14.5098,,14.1278,15.0432,14.5407,14.2343,14.001,100.0,60.0,20.2,1.13,0.64,14.6
0.2,0.664,0.136,2.49,0.51,1,,13.7486,13.4883,13.5496,,14.5098,,14.1278,15.0432,14.5407,14.2343,14.001,100.0,60.0,20.8,1.09,0.74,16.8
0.6,0.332,0.068,2.49,0.51,1,,13.7486,13.4883,13.5496,,14.5098,,14.1278,15.0432,14.5407,14.2343,14.001,100.0,60.0,16,0.96,0.7,10.8
0.05,0.7885,0.1615,2.49,0.51,1,,13.7486,13.344,,,,,14.1278,13.3874,14.5407,14.2343,14.001,100.0,60.0,15.97,0.81,0.44,5.69
0.05,0.7885,0.1615,2.49,0.51,1,,13.7486,13.4715,,,,,14.1278,13.3874,14.5407,14.2343,14.001,100.0,60.0,16.37,0.8,0.51,6.67
0.05,0.7885,0.1615,2.49,0.51,1,,13.7486,13.534,,,,,14.1278,13.3874,14.5407,14.2343,14.001,100.0,60.0,16.98,0.78,0.54,7.15
0.05,0.7885,0.1615,2.49,0.51,1,,13.7486,13.2542,,,,,14.1278,13.3874,14.5407,14.2343,14.001,100.0,60.0,14.52,0.84,0.41,5.0
0.05,0.7885,0.1615,2.49,0.51,1,,13.7486,13.3115,,,,,14.1278,13.3874,14.5407,14.2343,14.001,100.0,60.0,14.91,0.83,0.44,5.44
0.05,0.7885,0.1615,2.49,0.51,1,,13.7486,13.3948,,,,,14.1278,13.3874,14.5407,14.2343,14.001,100.0,60.0,15.14,0.82,0.49,6.08
0.1,0.75,0.15,2.55,0.45,1,,15.1313,14.489,,,14.5098,,15.2714,15.0432,14.5407,14.8646,14.001,100.0,60.0,18.31,1.182,0.7064,14.49
0.05,0.7885,0.1615,2.49,0.51,1,,13.7486,13.4883,13.5496,80.0,14.5098,250.0,14.1278,13.3874,14.5407,14.2343,14.001,100.0,60.0,23.5,1.11,0.77,20.1
0.05,0.7885,0.1615,2.49,0.51,1,,13.7486,13.4883,13.5496,82.0,14.5098,252.0,14.1278,13.3874,14.5407,15.1929,14.001,100.0,60.0,23.6,1.15,0.73,19.9
0.1,0.747,0.153,2.49,0.51,1,,13.7486,13.4883,13.5496,80.0,14.5098,250.0,14.1278,13.3874,14.5407,14.2343,14.001,100.0,60.0,22.3,1.09,0.73,17.8
0.05,0.7885,0.1615,2.49,0.51,1,,13.7486,15.159,,60.0,14.5098,80.0,14.1278,15.0432,14.5407,14.2343,14.001,110.0,60.0,16.94,1.06,0.5784,10.42
0.1,0.747,0.153,2.49,0.51,1,,13.7486,15.159,,60.0,14.5098,80.0,14.1278,15.0432,14.5407,14.2343,14.001,110.0,60.0,19.11,1.06,0.6374,12.55
0.2,0.664,0.136,2.49,0.51,1,,13.7486,15.159,,60.0,14.5098,80.0,14.1278,15.0432,14.5407,14.2343,14.001,110.0,60.0,17.11,0.95,0.5499,8.92
0.05,0.875,0.075,2.835,0.225,1,,13.7486,13.4883,13.5496,,15.4975,,14.1278,15.0432,14.5407,14.2343,14.001,120.0,60.0,24.47,1.1,0.779,21.0
0.175,0.75,0.075,2.64,0.36,0,,15.1313,15.2869,,,14.9639,,15.2714,15.0432,14.5407,14.2343,14.001,100.0,30.0,21.24,1.09,0.7757,18.14
0.05,0.7885,0.1615,2.7,0.3,0,,15.1313,11.945,14.9335,25.0,15.0294,25.0,12.109,15.0432,14.5407,14.2343,14.001,100.0,10.0,22.2,1.023,0.82,17.7
0.05,0.7885,0.1615,2.7,0.3,0,,15.1313,11.945,14.9335,25.0,15.0294,10.0,12.109,15.0432,14.5407,14.2343,14.001,100.0,10.0,21.9,0.878,0.68,13.0
0.0,0.4,0.6,3.0,0.0,1,,13.7486,15.159,,,14.5098,,14.1278,13.3874,14.5407,,,,,18.96,0.992,0.692,13.4
0.1,0.747,0.153,2.49,0.51,1,,13.7486,13.4883,13.5496,,14.5098,,14.1278,,14.2821,,14.001,100.0,60.0,21.5,1.06,0.67,12.9
0.07,0.9,0.03,2.76,0.24,1,,13.7486,13.4883,13.5496,,14.5098,,14.1278,15.0432,14.5407,14.2343,14.001,150.0,30.0,24.5,1.08,0.76,20.52
0.07,0.9,0.03,2.76,0.24,1,,13.7486,13.4883,13.5496,,15.5181,,14.1278,15.0432,14.5407,14.2343,15.5181,150.0,30.0,24.14,1.12,0.81,22.4
0.07,0.9,0.03,2.76,0.24,1,,13.7486,13.4883,13.5496,,15.247,,14.1278,15.0432,14.5407,14.2343,15.336,150.0,30.0,24.5,1.12,0.75,21.0
0.07,0.9,0.03,2.76,0.24,1,,13.7486,13.4883,13.5496,,15.247,,14.1278,15.0432,14.5407,14.2343,14.5293,150.0,30.0,22.09,1.11,0.6,14.8
0.05,0.8075,0.1425,2.55,0.45,1,,13.7486,13.4883,13.5496,,14.4994,,14.1278,12.719,14.5407,14.2343,14.001,100.0,60.0,19.41,1.09,0.69,14.57
0.05,0.8075,0.1425,2.55,0.45,1,,13.7486,13.4883,13.5496,,14.1676,,14.1278,12.719,14.5407,14.2343,14.001,100.0,60.0,18.23,1.06,0.62,12.02
0.05,0.8075,0.1425,2.55,0.45,1,,13.7486,15.5699,,,15.228,,14.1278,15.0432,14.5407,14.2343,14.001,100.0,60.0,22.4,1.13,0.74,19.0
0.05,0.85,0.15,2.55,0.45,1,,13.7486,14.9391,,,14.5098,,15.2714,15.0432,14.5407,14.8646,14.001,150.0,20.0,22.27,1.098,0.7296,17.95
0.0,0.85,0.15,2.55,0.45,1,,13.7486,14.9977,,,14.5098,,14.1278,15.0432,14.5407,14.2343,14.001,100.0,60.0,21.3,1.14,0.74,18.4
0.05,0.8,0.15,2.5,0.5,1,,15.1313,15.5699,,,14.5098,,14.1278,15.0432,14.5407,14.2343,14.001,100.0,60.0,23.6,1.11,76,19.9
0.05,0.7885,0.1615,2.49,0.51,0,,13.7486,11.945,,,11.6,,15.2714,15.0432,14.5407,14.2343,14.001,100.0,60.0,22.28,0.94,0.72,15.06
0.05,0.54,0.41,2.94,0.06,1,,15.1313,15.5699,,,14.5098,,14.1278,15.0432,14.5407,,15.4557,150.0,15.0,24.23,1.126,0.8035,21.92
0.03,0.945,0.025,2.925,0.075,1,,15.1313,15.5699,,,14.5098,,15.2714,15.0432,14.5407,,14.001,150.0,20.0,24.22,1.12,0.702,19.5
0.1,0.9,0.0,3.0,0.0,1,,15.1313,15.009,,,14.5098,,15.2714,15.0432,14.5407,14.2343,14.3622,130.0,5.0,20.36,1.11,0.706,15.96
0.2,0.8,0.0,3.0,0.0,1,,15.1313,15.009,,,14.5098,,15.2714,15.0432,14.5407,14.2343,14.3622,130.0,5.0,19.56,1.1,0.6895,14.48
0.15,0.8,0.05,3.0,0.0,1,,15.1313,15.009,,,14.5098,,15.2714,15.0432,14.5407,14.2343,14.3622,110.0,5.0,22.72,1.12,0.7204,18.33
0.15,0.7,0.15,3.0,0.0,1,,15.1313,15.009,,,14.5098,,15.2714,15.0432,14.5407,14.2343,14.3622,110.0,5.0,23.08,1.13,0.7494,19.54
0.0,1.0,0.0,3.0,0.0,1,,15.1313,15.009,,,14.5098,,15.2714,15.0432,14.5407,14.2343,14.3622,150.0,5.0,18.82,1.11,0.6284,13.11
0.05,0.7885,0.1615,2.515,0.4845,0,,15.1313,15.4382,,,14.9977,,15.4224,13.3874,14.5407,15.165,14.001,100.0,60.0,22.2,1.03,0.808,18.4
0.05,0.7885,0.1615,2.515,0.4845,0,,15.1313,15.4382,,,14.9196,,15.4224,13.3874,14.5407,15.165,14.001,100.0,60.0,22,1.08,0.753,17.8
0.05,0.7885,0.1615,2.515,0.4845,0,,15.1313,15.4382,,,15.1929,,15.4224,13.3874,14.5407,15.165,14.001,100.0,60.0,22.5,1.11,0.799,19.9
0.05,0.7885,0.1615,2.49,0.51,0,,13.7486,15.4382,,,15.0294,,15.2714,15.0432,14.5407,14.2343,14.001,100.0,60.0,20.29,,,13.7
0.0,0.83,0.17,2.49,0.51,1,,13.7486,13.4883,13.5496,,14.5098,,14.1278,15.0432,14.5407,14.2343,14.001,100.0,30.0,19.2,1.1,0.77,16.3
0.1,0.747,0.153,2.49,0.51,1,,13.7486,13.4883,13.5496,,14.5098,,15.4224,15.0432,14.5407,14.2343,14.001,100.0,60.0,23.5,1.11,0.77,20.0
0.1,0.747,0.153,2.49,0.51,1,,13.7486,14.3698,13.5496,,14.5098,,15.4224,15.0432,14.5407,14.2343,14.001,100.0,60.0,21.8,1.1,0.73,17.5
0.05,0.8,0.15,2.55,0.45,1,,13.7486,13.4883,,,14.5098,,14.1278,15.0432,14.5407,14.2343,15.0718,100.0,60.0,22.51,1.116,0.76,18.97
0.05,0.8,0.15,2.55,0.45,1,,13.7486,13.4883,,,14.5098,,14.1278,13.3874,14.5407,14.2343,14.9508,100.0,60.0,22.31,1.085,0.76,18.04
0.06,0.8,0.14,2.58,0.42,1,,13.7486,15.159,,,14.5098,,15.2714,15.0432,14.5407,14.2343,14.001,100.0,30.0,23.06,1.09,0.779,19.61
0.06,0.8,0.14,2.58,0.42,1,,13.7486,15.159,,,14.5098,,15.2714,15.0432,14.5407,14.2343,15.3841,100.0,30.0,23.65,1.1,0.814,21.37
0.06,0.8,0.14,2.58,0.42,1,,13.7486,15.159,,,14.5098,,15.2714,15.0432,14.5407,14.2343,15.3321,100.0,30.0,23.53,1.09,0.816,20.97
0.065,0.6545,0.2805,2.67,0.33,1,,15.1313,15.5699,,,14.2782,,12.109,15.0432,14.5407,,14.001,150.0,15.0,21.12,1.02,0.6057,12.87
0.065,0.6545,0.2805,2.67,0.33,1,,15.1313,15.5699,,,14.4564,,12.109,15.0432,14.5407,,14.001,150.0,15.0,22.43,1.03,0.6248,14.24
0.065,0.6545,0.2805,2.67,0.33,1,,15.1313,15.5699,,,14.4499,,12.109,15.0432,14.5407,,14.001,150.0,15.0,22.36,1.02,0.6199,14.19
0.05,0.7885,0.1615,2.49,0.51,1,,15.1313,15.5699,,,15.2111,,14.1278,15.0432,14.5407,14.2343,14.001,110.0,50.0,23.09,1.137,0.763,20.04
0.05,0.7885,0.1615,2.49,0.51,1,,15.1313,15.5699,,,15.2423,,14.1278,15.0432,14.5407,14.2343,14.001,110.0,50.0,22.81,1.152,0.772,20.28
0.05,0.7885,0.1615,2.49,0.51,1,,13.7486,14.8921,,,14.5098,,14.1278,13.3874,14.909,14.6464,14.001,100.0,60.0,23.1,1.09,0.627,15.7
0.0,0.85,0.15,2.55,0.45,1,,15.1313,15.5699,,,14.5098,,14.1278,15.0432,14.5407,15.0538,14.001,130.0,30.0,20.92,1.12,0.6557,15.46
0.0,0.85,0.15,2.55,0.45,1,,15.1313,15.5699,,,14.5098,,14.1278,15.0432,14.5407,14.9131,14.001,130.0,30.0,21.95,1.15,0.7057,17.75
0.0,0.85,0.15,2.55,0.45,1,,15.1313,15.5699,,,14.5098,,14.1278,15.0432,14.5407,14.8832,14.001,130.0,30.0,21.74,1.16,0.6985,17.52
0.0,0.85,0.15,2.55,0.45,1,,15.1313,15.5699,,,14.5098,,14.1278,15.0432,14.5407,14.8168,14.001,130.0,30.0,20.92,1.11,0.7322,17.01
0.05,0.79,0.16,2.5,0.5,1,,15.1313,15.159,,,14.3599,,14.1278,15.0432,14.5407,14.2343,14.001,100.0,60.0,17.36,1.03,0.71,12.77
0.17,0.83,0.0,1.8,1.2,0,,15.1313,15.4382,14.6411,,14.4252,,15.2714,,14.5407,14.8642,14.001,100.0,30.0,16.7,1.13,0.79,14.0
0.17,0.83,0.0,1.8,1.2,0,,15.1313,15.4382,14.6411,,14.6854,,15.2714,,14.5407,14.8642,14.001,100.0,30.0,17.3,1.22,0.77,16.0
0.05,0.88,0.07,3.0,0.0,0,,13.7486,11.945,14.6411,,15.764,,15.2714,13.3874,14.5407,15.764,14.001,100.0,15.0,25.08,1.167,0.8401,24.29
1.0,0.0,0.0,1.0,2.0,1,,13.7486,13.4883,,,14.5098,,15.2714,15.0432,14.5407,,14.3622,225.0,10.0,11.5,1.26,0.73,10.6
0.0,0.4,0.6,3.0,0.0,1,1.53,13.7486,13.4883,13.5496,,14.5098,,14.1278,15.0432,14.5407,11.8135,14.1985,75.0,10.0,21.2,1.003,0.7,14.9
0.0,0.87,0.13,3.0,0.0,1,1.52,13.7486,13.4883,,,14.5098,,14.1278,15.0432,14.5407,11.8135,14.1985,,,15.7,1.0,0.56,8.73
0.0,0.15,0.85,3.0,0.0,1,,13.7486,13.4883,13.5496,,14.5098,,14.1278,13.3874,14.5407,11.8135,14.3622,100.0,60.0,19.9,0.994,0.7332,14.5
0.0,0.4,0.6,3.0,0.0,1,1.53,13.7486,13.4883,13.5496,,14.5098,,14.1278,13.3874,14.5407,11.8135,14.3622,100.0,60.0,20.87,0.975,0.6997,14.23
0.0,0.85,0.15,3.0,0.0,1,,13.7486,13.4883,13.5496,,14.5098,,14.1278,13.3874,14.5407,11.8135,14.3622,150.0,60.0,15.66,0.805,0.598,7.53
0.0,0.4,0.6,3.0,0.0,0,1.55,15.1313,15.4382,14.6411,,15.7676,,15.4224,13.3874,14.5407,11.8135,14.9847,100.0,60.0,23,1.03,0.77,18.3
0.0,0.75,0.25,3.0,0.0,1,1.545,13.7486,13.4883,13.5496,,14.5098,,14.1278,13.3874,14.5407,11.8135,14.1985,140.0,10.0,21.1,1.03,0.7138,15.51
0.05,0.0,0.95,3.0,0.0,0,1.51,15.1313,11.945,,,11.6,,12.109,13.3874,14.5407,11.8135,11.7428,110.0,10.0,8.69,1.01,0.72,6.29
0.2,0.0,0.8,3.0,0.0,0,1.57,15.1313,11.945,,,11.6,,12.109,13.3874,14.5407,11.8135,11.7428,110.0,10.0,6.76,1.04,0.65,4.58
0.4,0.0,0.6,3.0,0.0,0,1.62,15.1313,11.945,,,11.6,,12.109,13.3874,14.5407,11.8135,11.7428,110.0,10.0,4.26,1.03,0.57,2.5
0.8,0.0,0.2,3.0,0.0,0,1.72,15.1313,11.945,,,11.6,,12.109,13.3874,14.5407,11.8135,11.7428,110.0,10.0,0.58,0.84,0.46,0.22
0.1,0.9,0.0,3.0,0.0,1,1.55,13.7486,13.4883,,,14.5098,,15.2714,13.3874,14.5407,15.165,14.1985,150.0,5.0,23.5,1.06,0.663,16.5
0.15,0.85,0.0,3.0,0.0,1,1.52,13.7486,13.4883,,,14.5098,,15.2714,12.719,14.5407,11.8135,14.001,170.0,10.0,20.39,1.06,0.74,16.1
0.45,0.55,0.0,3.0,0.0,1,,13.7486,13.4883,,,14.5098,,15.2714,12.719,14.5407,11.8135,14.001,170.0,10.0,18.09,0.94,0.56,9.6
0.2,0.8,0.0,3.0,0.0,1,1.56,13.7486,13.4883,13.5496,,14.5098,,14.1278,15.0432,14.5407,14.2343,14.001,100.0,10.0,21.5,1.017,0.701,15.69
0.0,0.83,0.17,1.8,1.2,1,1.74,13.7486,15.5699,14.7346,,14.5098,,15.2714,13.3874,14.5407,,14.1985,185.0,90.0,19.4,1.2,0.751,17.1
0.0,1.0,0.0,2.5,0.5,1,1.97,13.7486,13.4883,13.5496,,14.5098,,14.1278,15.0432,14.5407,14.2343,14.001,100.0,30.0,14.3,1.2,0.56,9.6
0.0,1.0,0.0,1.5,1.5,1,1.91,13.7486,13.4883,13.5496,,14.5098,,14.1278,15.0432,14.5407,14.2343,14.001,100.0,30.0,7.1,1.06,0.5,3.7
0.0,1.0,0.0,0.5,2.5,1,2.1,13.7486,13.4883,13.5496,,14.5098,,14.1278,15.0432,14.5407,14.2343,14.001,100.0,30.0,9.7,1.06,0.49,5.0
0.0,0.83,0.17,3.0,0.0,1,1.53,13.7486,13.4883,13.5496,,14.5098,,14.1278,15.0432,14.5407,14.2343,14.001,100.0,30.0,21.5,0.92,0.61,12.1
0.0,0.83,0.17,2.0,1.0,1,1.68,13.7486,13.4883,13.5496,,14.5098,,14.1278,15.0432,14.5407,14.2343,14.001,100.0,30.0,19.1,1.18,0.65,14.7
0.0,0.83,0.17,1.0,2.0,1,1.98,13.7486,13.4883,13.5496,,14.5098,,14.1278,15.0432,14.5407,14.2343,14.001,100.0,30.0,11.1,0.98,0.54,5.8
0.0,0.83,0.17,0.0,3.0,1,2.28,13.7486,13.4883,13.5496,,14.5098,,14.1278,15.0432,14.5407,14.2343,14.001,100.0,30.0,7,1.42,0.65,6.5
0.0,0.67,0.33,2.5,0.5,1,1.64,13.7486,13.4883,13.5496,,14.5098,,14.1278,15.0432,14.5407,14.2343,14.001,100.0,30.0,23.7,1.14,0.76,20.7
0.0,0.67,0.33,1.5,1.5,1,1.85,13.7486,13.4883,13.5496,,14.5098,,14.1278,15.0432,14.5407,14.2343,14.001,100.0,30.0,15.3,1.11,0.69,11.7
0.0,0.67,0.33,0.5,2.5,1,2.11,13.7486,13.4883,13.5496,,14.5098,,14.1278,15.0432,14.5407,14.2343,14.001,100.0,30.0,7.2,0.92,0.51,3.4
0.0,0.5,0.5,3.0,0.0,1,1.55,13.7486,13.4883,13.5496,,14.5098,,14.1278,15.0432,14.5407,14.2343,14.001,100.0,30.0,19.6,0.96,0.68,12.8
0.0,0.5,0.5,2.0,1.0,1,1.75,13.7486,13.4883,13.5496,,14.5098,,14.1278,15.0432,14.5407,14.2343,14.001,100.0,30.0,20,1.1,0.69,15.3
0.0,0.5,0.5,1.0,2.0,1,1.96,13.7486,13.4883,13.5496,,14.5098,,14.1278,15.0432,14.5407,14.2343,14.001,100.0,30.0,12.6,1.03,0.6,7.9
0.0,0.5,0.5,0.0,3.0,1,2.28,13.7486,13.4883,13.5496,,14.5098,,14.1278,15.0432,14.5407,14.2343,14.001,100.0,30.0,7,1.39,0.73,7.1
0.0,0.33,0.67,2.5,0.5,1,1.67,13.7486,13.4883,13.5496,,14.5098,,14.1278,15.0432,14.5407,14.2343,14.001,100.0,30.0,18.7,0.91,0.64,11.0
0.0,0.33,0.67,1.5,1.5,1,1.85,13.7486,13.4883,13.5496,,14.5098,,14.1278,15.0432,14.5407,14.2343,14.001,100.0,30.0,13.9,1.13,0.68,10.7
0.0,0.33,0.67,0.5,2.5,1,2.14,13.7486,13.4883,13.5496,,14.5098,,14.1278,15.0432,14.5407,14.2343,14.001,100.0,30.0,4.4,0.99,0.66,2.9
0.0,0.17,0.83,3.0,0.0,1,1.59,13.7486,13.4883,13.5496,,14.5098,,14.1278,15.0432,14.5407,14.2343,14.001,100.0,30.0,18.8,1.05,0.6,11.8
0.0,0.17,0.83,2.0,1.0,1,1.76,13.7486,13.4883,13.5496,,14.5098,,14.1278,15.0432,14.5407,14.2343,14.001,100.0,30.0,16.7,1.12,0.65,12.2
0.0,0.17,0.83,1.0,2.0,1,1.99,13.7486,13.4883,13.5496,,14.5098,,14.1278,15.0432,14.5407,14.2343,14.001,100.0,30.0,5.1,0.94,0.74,3.5
0.0,0.17,0.83,0.0,3.0,1,2.3,13.7486,13.4883,13.5496,,14.5098,,14.1278,15.0432,14.5407,14.2343,14.001,100.0,30.0,6.3,1.37,0.81,7.1
0.0,0.0,1.0,2.5,0.5,1,1.66,13.7486,13.4883,13.5496,,14.5098,,14.1278,15.0432,14.5407,14.2343,14.001,100.0,30.0,18.3,1.1,0.66,13.2
0.0,0.0,1.0,1.5,1.5,1,1.87,13.7486,13.4883,13.5496,,14.5098,,14.1278,15.0432,14.5407,14.2343,14.001,100.0,30.0,6.6,1.12,1.17,8.6
0.0,0.0,1.0,0.5,2.5,1,2.16,13.7486,13.4883,13.5496,,14.5098,,14.1278,15.0432,14.5407,14.2343,14.001,100.0,30.0,3,1.07,1.07,3.5
0.2,0.8,0.0,3.0,0.0,1,1.574,13.7486,15.5699,13.9051,,14.5098,,14.1278,13.3874,14.5407,15.165,14.001,150.0,10.0,21.73,1.03,0.7237,16.18
0.1,0.9,0.0,3.0,0.0,1,1.53,13.7486,13.4883,,,14.5098,,15.2714,13.3874,14.5407,,14.001,185.0,30.0,22.25,0.69,0.45,6.82
0.2,0.8,0.0,3.0,0.0,1,1.55,13.7486,13.4883,,,14.5098,,15.2714,13.3874,14.5407,,14.001,185.0,30.0,20.75,0.7,0.53,7.67
0.0,0.85,0.15,2.85,0.15,1,1.55,15.1313,15.159,,,14.5098,,14.1278,13.3874,14.5407,14.2343,14.001,100.0,10.0,20.96,1.01,0.61,14.29
0.0,0.85,0.15,2.55,0.45,1,1.6,15.1313,15.159,,,14.5098,,14.1278,13.3874,14.5407,14.2343,14.001,100.0,10.0,20.77,1.04,0.68,14.08
0.0,0.85,0.15,2.25,0.75,1,1.65,15.1313,15.159,,,14.5098,,14.1278,13.3874,14.5407,14.2343,14.001,100.0,10.0,17.91,1.07,0.64,11.17
0.0,0.85,0.15,1.95,1.05,1,1.72,15.1313,15.159,,,14.5098,,14.1278,13.3874,14.5407,14.2343,14.001,100.0,10.0,17.86,1.1,0.65,12.11
0.0,0.85,0.15,1.65,1.35,1,1.8,15.1313,15.159,,,14.5098,,14.1278,13.3874,14.5407,14.2343,14.001,100.0,10.0,17.27,1.12,0.59,11.59
0.0,0.85,0.15,2.55,0.45,1,1.6,15.1313,15.159,,,14.5098,,14.1278,13.3874,14.5407,14.2343,14.001,100.0,10.0,20.77,1.04,0.68,14.47
0.0,0.75,0.25,2.25,0.75,1,1.67,15.1313,15.159,,,14.5098,,14.1278,13.3874,14.5407,14.2343,14.001,100.0,10.0,20.88,1.05,0.57,15.83
0.0,0.65,0.35,1.95,1.05,1,1.73,15.1313,15.159,,,14.5098,,14.1278,13.3874,14.5407,14.2343,14.001,100.0,10.0,18.5,1.09,0.68,13.95
0.0,0.55,0.45,1.65,1.35,1,1.81,15.1313,15.159,,,14.5098,,14.1278,13.3874,14.5407,14.2343,14.001,100.0,10.0,17.38,1.1,0.6,12.33
0.0,1.0,0.0,3.0,0.0,1,,13.7486,13.4883,13.5496,,14.5098,,14.1278,15.0432,14.5407,14.2343,14.001,100.0,10.0,21.4,0.809,0.592,10.4
0.2,0.8,0.0,2.84,0.16,1,1.58,13.7486,13.4883,13.5496,,14.5098,,14.1278,15.0432,14.5407,14.2343,14.001,100.0,10.0,21.9,1.073,0.742,17.35
0.05,0.83,0.12,2.61,0.39,1,1.61,13.7486,13.4883,14.8051,,14.5098,,14.1278,15.0432,14.5407,14.2343,14.001,100.0,50.0,21.83,1.135,0.684,16.92
0.06,0.79,0.15,2.55,0.45,1,1.59,13.7486,13.4883,13.5496,,14.5098,,14.1278,15.0432,14.5407,14.2343,14.001,100.0,60.0,22.6,1.05,0.73,17.3
0.0,0.85,0.15,2.55,0.45,1,1.62,13.7486,13.4883,13.5496,,14.5098,,14.1278,13.3874,14.5407,14.2343,14.001,100.0,60.0,21.47,1.027,0.6916,15.24
0.1,0.765,0.135,2.55,0.45,1,1.611,13.7486,13.4883,13.5496,,14.5098,,14.1278,13.3874,14.5407,14.2343,14.001,100.0,60.0,21.28,1.061,0.6955,15.71
0.5,0.4,0.1,2.49,0.51,1,1.7,15.1313,14.5379,,,14.191,,14.1278,14.3084,,,,,,17,1.146,0.82,16.0
0.0,0.0,1.0,2.4,0.6,1,1.72,15.1313,14.5379,,,14.191,,14.1278,14.3084,,,,,,17.3,1.104,0.819,15.6
0.0,0.0,1.0,3.0,0.0,0,1.61,15.1313,14.5379,14.7346,,15.0294,,15.2714,15.0432,14.5407,11.8135,14.001,100.0,10.0,20.13,1.05,0.73,15.43
0.0,0.4,0.6,3.0,0.0,0,1.55,15.1313,14.5379,14.7346,,15.0294,,15.2714,15.0432,14.5407,11.8135,14.001,100.0,10.0,21.98,1.0,0.72,15.83
0.0,0.65,0.35,3.0,0.0,0,1.52,15.1313,14.5379,14.7346,,15.0294,,15.2714,15.0432,14.5407,11.8135,14.001,100.0,10.0,19.43,0.98,0.58,11.04
0.0,0.3,0.7,0.0,3.0,0,1.57,15.1313,14.5379,14.7346,,15.0294,,15.2714,15.0432,14.5407,11.8135,14.001,100.0,10.0,21.47,1.02,0.75,16.42
0.0,0.3,0.7,0.3,2.7,0,1.63,15.1313,14.5379,14.7346,,15.0294,,15.2714,15.0432,14.5407,11.8135,14.001,100.0,10.0,20.21,1.1,0.78,17.34
0.0,0.3,0.7,0.6,2.4,0,1.69,15.1313,14.5379,14.7346,,15.0294,,15.2714,15.0432,14.5407,11.8135,14.001,100.0,10.0,17.34,1.11,0.78,15.01
0.17,0.83,0.0,1.8,1.2,1,1.79,13.7486,15.5699,,,14.5098,,14.1278,15.0432,14.5407,14.2343,14.001,100.0,60.0,16.4,1.284,0.687,16.51
0.17,0.83,0.0,1.2,1.8,1,1.93,13.7486,15.5699,,,14.5098,,14.1278,15.0432,14.5407,14.2343,14.001,100.0,60.0,13.6,1.312,0.652,14.35
0.25,0.75,0.0,2.4,0.6,0,1.68,15.1313,15.4382,14.6411,,15.7676,,15.2714,12.719,14.5407,,14.001,100.0,30.0,19.4,1.1,0.81,17.4
0.4,0.6,0.0,2.1,0.9,0,1.75,15.1313,15.4382,14.6411,,15.7676,,15.2714,12.719,14.5407,,14.001,100.0,30.0,17.5,1.17,0.8,16.3
0.0,0.85,0.15,2.7,0.3,1,1.55,13.7486,15.5699,13.9051,,14.5098,,15.2714,12.719,12.7198,,14.001,100.0,60.0,17,0.81,0.5,6.3
0.05,0.7885,0.1615,2.7,0.3,1,1.55,13.7486,15.5699,13.9051,,14.5098,,15.2714,12.719,12.7198,,14.001,100.0,60.0,18.3,0.9,0.58,8.9
0.0,0.0,1.0,3.0,0.0,1,1.59,13.7486,15.5699,13.9051,,14.5098,,15.2714,12.719,14.5407,,14.1985,100.0,60.0,21.4,1.01,0.66,14.6
0.0,0.85,0.15,2.7,0.3,1,1.57,13.7486,15.5699,13.9051,,14.5098,,15.2714,12.719,14.5407,,14.001,100.0,60.0,21.9,1.06,0.72,16.6
0.05,0.7885,0.1615,2.7,0.3,1,1.58,13.7486,15.5699,13.9051,,14.5098,,15.2714,12.719,14.5407,,14.001,100.0,60.0,22.6,1.08,0.74,18.0
0.25,0.75,0.0,2.1,0.9,1,1.73,13.7486,15.5699,13.9051,,14.5098,,15.2714,12.719,14.5407,,14.001,150.0,30.0,17.1,1.06,0.67,12.2
0.0,0.0,1.0,3.0,0.0,0,1.58,13.7486,11.945,14.6411,,13.4624,,15.2714,12.719,12.7198,,14.001,100.0,60.0,13.5,0.81,0.6,6.6
0.2,0.8,0.0,1.95,1.05,0,1.76,13.7486,11.945,14.6411,,13.4624,,15.2714,12.719,12.7198,,14.001,150.0,30.0,14.1,0.91,0.49,6.3
0.05,0.7885,0.1615,2.7,0.3,0,1.58,13.7486,11.945,14.6411,,13.4624,,15.2714,12.719,14.5407,,14.001,100.0,60.0,20,0.95,0.78,15.4
0.1,0.0,0.9,1.8,1.2,0,1.81,15.1313,11.945,14.6411,,14.5683,,15.2714,13.3874,14.5407,11.8135,14.001,100.0,10.0,16.9,1.14,0.78,15.1
0.6,0.4,0.0,1.8,1.2,0,1.78,15.1313,11.945,14.6411,,15.7676,,15.2714,13.3874,14.5407,14.2343,14.001,130.0,10.0,14,1.12,0.774,12.1
0.15,0.85,0.0,0.9,2.1,1,2.0,15.1313,15.159,,,14.191,,14.1278,13.3874,14.5407,11.8135,14.3622,100.0,30.0,11.36,1.183,0.774,10.4