File: TCP_ML/Edited_knn_imputed.csv
Cs,FA,MA,I,Br,structure,bandgap,glass,ETL,ETL-2,Ethickness,HTL,Hthickness,meta,depositionProcedure,depositionMethod,Anti-solvent,PrecursorSolution,AnnealingTemperature,AnnealingTime,Jsc,Voc,FF,PCE
0.2,0.664,0.136,2.49,0.51,1,1.67593,FTO,c-TiO2,mp-TiO2,32.8,spiro,150.22,Au,two-step,spin,CB,DMF/DMSO,100.0,60.0,20.8,1.09,0.74,16.8
0.0,0.976,0.024,2.928,0.072,1,1.54726,ITO,SnO2,unknown,28.0,spiro,172.0,Ag,two-step,spin,unknown,DMF/DMSO,150.0,20.0,24.03,1.09,0.6801,18.59
0.1,0.0,0.9,3.0,0.0,0,1.54,ITO,PCBM,unknown,22.0,PEDOT:PSS,205.0,Al,one-step,spin,toluene,GBL/DMF,110.0,10.0,10.1,1.05,0.73,7.68
0.05,0.85,0.15,2.55,0.45,1,1.69477,FTO,Bi-SnO2,unknown,28.0,spiro,172.0,Ag,two-step,spin,EA/HEX,DMF/DMSO,150.0,20.0,23.18,1.118,0.7627,18.49
0.1,0.747,0.153,2.49,0.51,1,1.56477,ITO,SnO2,unknown,72.6,spiro,200.62,Au,two-step,spin,CB,DMF/DMSO,100.0,60.0,23.79,0.984,0.818,19.15
0.1,0.747,0.153,2.49,0.51,1,1.69005,FTO,ALD-TiO2,unknown,34.6,spiro,160.22,Cu,two-step,spin,CB,DMF/DMSO,100.0,60.0,15.1,1.03,0.63,9.8
0.0,0.0,1.0,3.0,0.0,0,1.52,ITO,PCBM,unknown,24.0,PEDOT:PSS,198.0,Al,one-step,spin,toluene,GBL/DMF,110.0,10.0,8.89,0.89,0.7,5.51
0.15,0.7055,0.1445,2.1,0.9,1,1.7,unknown,unknown,unknown,46.2,unknown,108.0,unknown,unknown,unknown,unknown,unknown,110.0,27.0,18.7,1.19,0.802,18.6
0.05,0.85,0.15,2.55,0.45,1,1.69117,FTO,SG-SnO2,unknown,28.0,spiro,172.0,Ag,two-step,spin,EA/HEX,DMF/DMSO,150.0,20.0,22.74,1.078,0.7324,18.16
0.05,0.7885,0.1615,2.54,0.51,1,1.69458,FTO,TiO2,unknown,72.6,spiro,200.62,Au,two-step,spin,CB,DMF/DMSO,100.0,60.0,23.6,1.129,0.767,20.6
0.05,0.7885,0.1615,2.49,0.51,1,1.69706,FTO,c-TiO2,mp-TiO2,40.0,spiro,26.0314,Au,two-step,spin,CB,DMF/DMSO,100.0,60.0,20.038,1.0312,0.725,16.1
0.15,0.7055,0.1445,2.49,0.51,1,1.67811,FTO,c-TiO2,mp-TiO2,30.0,spiro,50.0314,Au,two-step,spin,CB,DMF/DMSO,100.0,60.0,19.4,1.088,0.69,14.6
0.05,0.7885,0.1615,2.49,0.51,1,1.63738,ITO,SnO2,unknown,30.0,spiro,165.0,Ag,one-step,spin,CB,DMF/DMSO,120.0,5.0,20.01,1.14,0.7694,17.48
0.05,0.8075,0.1425,2.55,0.45,1,1.68347,FTO,c-TiO2,mp-TiO2,34.6,RCP–BTT,160.22,Au,three-step,spin,CB,DMF/DMSO,100.0,60.0,14.68,1.08,0.53,8.45
0.0,0.85,0.15,2.55,0.45,1,1.6,ITO,TiO2,unknown,23.2,spiro,104.2,Au,one-step,spin,CB,DMF/DMSO,100.0,10.0,20.77,1.04,0.68,14.08
0.0,0.83,0.17,0.5,2.5,1,2.11,FTO,c-TiO2,mp-TiO2,21.2,spiro,94.0034,Au,two-step,spin,CB,DMF/DMSO,100.0,30.0,8.8,0.88,0.43,3.3
0.05,0.7885,0.1615,2.49,0.51,1,1.6826,ITO,SnO2,unknown,23.2,spiro,104.2,Au,two-step,R2R,CB,DMF/DMSO,100.0,10.0,20.62,1.05,0.7605,16.51
0.15,0.85,0.0,0.9,2.1,1,2.0,ITO,TiO2,unknown,21.2,TaTm,133.0034,Au,one-step,spin,toluene,DMSO,100.0,30.0,1.183,11.36,0.774,10.4
0.05,0.8,0.15,2.5,0.5,1,1.544115,ITO,SnO2,unknown,54.208,spiro,100.048,Au,two-step,spin,CB,DMF/DMSO,100.0,60.0,23.6,1.11,76.0,19.9
0.0,1.0,0.0,2.5,0.5,1,1.97,FTO,c-TiO2,mp-TiO2,21.2,spiro,94.0034,Au,two-step,spin,CB,DMF/DMSO,100.0,30.0,14.3,1.2,0.56,9.6
0.06,0.45,0.49,1.86,0.96,1,1.8,FTO,SnO2,unknown,21.2,spiro,94.0034,C,one-step,VAC,CB,DMF/DMSO,100.0,30.0,9.5,0.96,0.4,5.4
0.15,0.6375,0.2125,2.28,0.72,0,1.71,ITO,C,BCP,22.2,PTAA,94.0034,Cu,two-step,spin,unknown,DMF/NMP,100.0,30.0,18.7,1.09,0.724,14.9
0.05,0.85,0.15,2.55,0.45,1,1.69576,FTO,NP-SnO2,unknown,28.0,spiro,172.0,Ag,two-step,spin,EA/HEX,DMF/DMSO,150.0,20.0,22.27,1.098,0.7296,17.95
0.0,0.15,0.85,3.0,0.0,1,1.70975,FTO,c-TiO2,mp-TiO2,32.6,spiro,150.22,Au,one-step,spin,toluene,DMSO,100.0,60.0,19.9,0.994,0.7332,14.5
0.2,0.32,0.48,2.8,0.2,1,1.65,FTO,TiO2,Al2O3,21.2,NiO,94.0034,C,two-step,spin,unknown,DMF/DMSO,100.0,30.0,12.61,0.889,0.6807,7.64
0.0,0.85,0.15,2.55,0.45,1,1.53797,FTO,TiO2,unknown,36.008,spiro,190.22,Au,two-step,spin,CB,DMF/DMSO,100.0,60.0,22.04,1.0285,0.72,16.3
0.0,0.85,0.15,2.1,0.9,1,1.68,ITO,TiO2,unknown,22.2,spiro,139.2,Au,one-step,spin,CB,DMF/DMSO,100.0,10.0,17.71,1.1,0.65,10.04
0.0,0.0,1.0,1.0,2.0,1,2.03,FTO,c-TiO2,mp-TiO2,21.2,spiro,94.0034,Au,two-step,spin,CB,DMF/DMSO,100.0,30.0,4.0,1.1,1.43,6.3
0.05,0.7885,0.1615,1.5,1.5,1,1.69117,ITO,SnO2,unknown,22.2,spiro,139.2,Au,two-step,R2R,CB,DMF/DMSO,100.0,10.0,15.05,1.12,0.6427,10.81
0.0,0.3,0.7,3.0,0.0,1,1.68431,FTO,c-TiO2,mp-TiO2,32.6,spiro,150.22,Au,one-step,spin,toluene,DMSO,100.0,60.0,19.84,0.899,0.7139,12.73
0.2,0.75,0.05,2.49,0.51,1,1.544115,FTO,c-TiO2,mp-TiO2,31.0,spiro,50.0314,Au,two-step,spin,CB,DMF/DMSO,100.0,60.0,20.4,1.054,0.74,15.9
0.0,0.95,0.05,2.85,0.15,1,1.68724,ITO,SnO2,unknown,28.0,spiro,172.0,Au,two-step,R2R,tBuOH/EA,DMF/DMSO,120.0,30.0,22.0,1.02,0.744,16.7
0.05,0.7885,0.1615,2.49,0.51,1,1.68539,ITO,SnO2,unknown,52.0,spiro,104.0,Au,two-step,spin,CB,DMF/DMSO,110.0,50.0,22.25,1.116,0.768,19.07
0.0,0.4,0.6,3.0,0.0,0,1.55,ITO,C60,PCBM,24.2,NiOx,61.2,Ag,two-step,spin,toluene,DMF/DMSO,100.0,10.0,21.98,1.0,0.72,15.83
0.05,0.7885,0.1615,2.49,0.51,1,1.54116,FTO,c-TiO2,mp-TiO2,24.2,spiro,55.0034,Au,two-step,spin,CB,DMF/DMSO,100.0,30.0,22.4,1.1,0.78,19.2
0.0,0.85,0.15,2.7,0.3,1,1.57,FTO,SnO2,C,40.6,spiro,74.0,Ag,three-step,spin,unknown,DMF/DMSO,100.0,60.0,1.06,21.9,0.72,16.6
0.0,0.3,0.7,0.3,2.7,0,1.63,ITO,C60,PCBM,23.2,NiOx,104.2,Ag,two-step,spin,toluene,DMF/DMSO,100.0,10.0,20.21,1.1,0.78,17.34
0.0,0.83,0.17,1.8,1.2,1,1.74,FTO,SnO2,PCBM,52.0,spiro,104.0,Ag,one-step,spin,unknown,DMF,185.0,90.0,19.4,1.2,0.751,17.1
0.0,0.0,1.0,3.0,0.0,0,1.58,FTO,PCBM,BCP,40.6,ployTPD:F4-TCNQ,74.0,Ag,three-step,CAGQ,unknown,DMF/DMSO,100.0,60.0,0.81,13.5,0.6,6.6
0.05,0.79,0.15,2.45,0.55,1,1.6,ITO,SnO2,unknown,20.0,spiro,200.0,Au,unknown,unknown,unknown,unknown,102.0,52.0,22.297,1.0755,0.7475,17.92
0.0,0.3,0.7,0.0,3.0,0,1.57,ITO,C60,PCBM,24.2,NiOx,65.2,Ag,two-step,spin,toluene,DMF/DMSO,100.0,10.0,21.47,1.02,0.75,16.42
0.15,0.8,0.05,3.0,0.0,1,1.60582,ITO,ZnO2,unknown,26.0,spiro,120.0,Ag,two-step,spin,CB,DMSO,110.0,5.0,22.72,1.12,0.7204,18.33
0.05,0.95,0.0,3.05,0.0,1,1.478,FTO,TiO2,unknown,72.6,spiro,150.428,Au,two-step,spin,CB,DMF/DMSO,100.0,60.0,25.45,1.09,0.727,20.1
0.07,0.9,0.03,2.76,0.24,1,1.69576,FTO,c-TiO2,mp-TiO2,28.0,spiro,172.0,Au,two-step,spin,CB,DMF/DMSO,150.0,30.0,24.5,1.08,0.76,20.52
0.0,0.5,0.5,2.0,1.0,1,1.75,FTO,c-TiO2,mp-TiO2,22.2,spiro,94.0034,Au,two-step,spin,CB,DMF/DMSO,100.0,30.0,20.0,1.1,0.69,15.3
0.0,0.4,0.6,3.0,0.0,0,1.53,ITO,PCBM,unknown,30.6,PEDOT:PSS,150.22,Ca/Ag,two-step,spin,toluene,DMF,100.0,120.0,18.95,0.943,0.731,13
0.05,0.76,0.19,2.43,0.57,1,1.69576,FTO,c-TiO2,mp-TiO2,46.2,TPB,91.0,Au,two-step,spin,CB,DMF/DMSO,102.0,38.6,18.5,0.991,0.7,12.59
0.05,0.7885,0.1615,2.49,0.51,1,1.52658,FTO,4%Nb–PlanarTiO2,unknown,34.6,unknown,160.22,Au,one-step,spin,CB,DMF/DMSO,100.0,60.0,16.84,0.79,0.51,6.78
0.0,0.17,0.83,0.5,2.5,1,2.15,FTO,c-TiO2,mp-TiO2,21.2,spiro,133.0034,Au,two-step,spin,CB,DMF/DMSO,100.0,30.0,2.8,0.95,0.86,2.3
0.0,0.67,0.33,2.0,1.0,1,1.68,FTO,c-TiO2,mp-TiO2,23.2,spiro,55.2034,Au,two-step,spin,CB,DMF/DMSO,100.0,30.0,21.4,1.15,0.75,18.5
0.05,0.7885,0.1615,2.49,0.51,1,1.60329,FTO,TiO2,unknown,60.0,spiro,80.0,Au,two-step,spin,CB,DMF/DMSO,110.0,60.0,16.94,1.06,0.5784,10.42
0.0,1.0,0.0,0.5,2.5,1,2.1,FTO,c-TiO2,mp-TiO2,21.2,spiro,94.0034,Au,two-step,spin,CB,DMF/DMSO,100.0,30.0,9.7,1.06,0.49,5
0.0,0.0,1.0,2.4,0.6,1,1.72,ITO,C60,unknown,46.4,TaTm,74.0,Au,Vacuum Deposited,unknown,unknown,unknown,100.0,34.0,17.3,1.104,0.819,15.6
0.0,0.5,0.5,1.5,1.5,1,1.84,ITO,TiO2,unknown,22.2,spiro,139.2,Au,one-step,spin,CB,DMF/DMSO,100.0,10.0,16.19,1.11,0.59,11.1
0.17,0.83,0.0,1.8,1.2,0,1.68654,ITO,C,BCP,21.2,PTAA,94.0034,Ag,unknown,spin,ANI,DMF/DMSO,100.0,30.0,16.1,1.08,0.75,12.7
0.05,0.7885,0.1615,2.49,0.51,1,1.52783,FTO,c-TiO2,mp-TiO2,42.208,spiro,140.2234,Au,one-step,spin,CB,DMF/DMSO,100.0,45.0,22.73,1.107,0.72,18.12
0.1,0.765,0.135,2.55,0.45,0,1.67593,ITO,SnO2,unknown,30.0,spiro,176.0,Ag,R2R,unknown,CB,DMF/DMSO,100.0,54.0,19.81,0.95,0.7,13.41
0.05,0.7885,0.1615,2.49,0.51,1,1.69576,FTO,2%Nb–mpTiO2,unknown,34.6,unknown,160.22,Au,one-step,spin,CB,DMF/DMSO,100.0,60.0,14.7,0.83,0.41,5
0.15,0.6375,0.2125,2.1,0.9,0,1.74,ITO,C,BCP,21.2,PTAA,94.0034,Cu,two-step,spin,unknown,DMF/NMP,100.0,30.0,18.0,1.11,0.719,14.4
0.0,0.0,1.0,1.5,1.5,1,1.87,FTO,c-TiO2,mp-TiO2,21.2,spiro,94.0034,Au,two-step,spin,CB,DMF/DMSO,100.0,30.0,6.6,1.12,1.17,8.6
0.05,0.83,0.12,2.61,0.39,1,1.61,FTO,c-TiO2,mp-TiO2/a-SnO2,32.008,spiro,190.22,Au,two-step,spin,CB,DMF/DMSO,100.0,50.0,22.51,1.168,0.776, 20.2
0.05,0.9,0.05,3.0,0.0,1,1.54719,FTO,c-TiO2,mp-TiO2,72.6,spiro,150.428,Au,one-step,spin,CB,DMF/DMSO,100.0,60.0,25.32,1.122,0.8365,23.76
0.15,0.6375,0.2125,2.4,0.6,0,1.68,ITO,C,BCP,22.2,PTAA,94.0034,Cu,two-step,spin,unknown,DMF/NMP,100.0,30.0,19.9,1.1,0.737,16.1
0.05,0.9,0.05,3.0,0.0,1,1.68344,FTO,c-TiO2,meso-TiO2,20.016,spiro,0.07,Au,two-step,spin,hlorobenzene,DMF/DMSO/DmmimCl,100.0,60.0,25.26,1.15,0.84,24.46
0.17,0.83,0.0,1.8,1.2,1,1.79,FTO,SnO2,unknown,34.6,spiro,160.22,Au,two-step,spin,CB,DMF/DMSO,100.0,60.0,16.4,1.284,0.687,16.51
0.6,0.0,0.4,1.8,1.2,0,1.81,ITO,PCBM,BCP,30.0,PTAA,165.0,Ag,one-step,spin,CB,DMF/DMSO,130.0,10.0,1.17,13.9,0.683,11.1
0.05,0.7885,0.1615,2.49,0.51,1,1.69531,FTO,TiO2,unknown,60.0,spiro:F4-TCNQ,80.0,Ag,one-step,spin,CB,DMF/DMSO,110.0,60.0,19.5,1.05,0.634,13.3
0.05,0.79,0.16,2.45,0.55,1,1.68558,FTO,c-TiO2,mp-TiO2,46.2,spiro,108.0,Au,unknown,unknown,unknown,unknown,110.0,21.6,18.85,1.09,0.6975,14.32
0.05,0.7885,0.1615,2.49,0.51,1,1.55477,FTO,c-TiO2,mp-TiO2,30.0,spiro,50.0314,Au,two-step,spin,CB,DMF/DMSO,100.0,60.0,22.7,1.109,0.74,18.6
0.0,0.3,0.7,3.0,0.0,0,1.57,ITO,C60,PCBM,24.2,NiOx,65.2,Ag,two-step,spin,toluene,DMF/DMSO,100.0,10.0,21.47,1.02,0.75,16.42
0.05,0.7885,0.1615,2.7,0.3,0,1.69576,ITO,PCBM,ZnO,25.0,NiOx,10.0,Al,two-step,spin,CB,DMF/DMSO,100.0,10.0,21.9,0.878,0.68,13
0.0,0.5,0.5,1.5,1.5,1,1.85,FTO,c-TiO2,mp-TiO2,21.2,spiro,94.0034,Au,two-step,spin,CB,DMF/DMSO,100.0,30.0,15.5,1.09,0.7,11.9
0.0,0.85,0.15,2.4,0.6,1,1.62,ITO,TiO2,unknown,23.2,spiro,104.2,Au,one-step,spin,CB,DMF/DMSO,100.0,10.0,20.18,1.05,0.54,9.79
0.05,0.87,0.08,2.76,0.24,0,1.69576,ITO,BCP,C60,24.2,PTAA,52.0034,Ag,one-step,spin,unknown,DMF/DMSO/Pb(SCN)2,100.0,30.0,21.93,1.02,0.802,18.2
0.0,0.17,0.83,3.0,0.0,1,1.59,FTO,c-TiO2,mp-TiO2,22.2,spiro,94.0034,Au,two-step,spin,CB,DMF/DMSO,100.0,30.0,18.8,1.05,0.6,11.8
0.05,0.7885,0.1615,2.7,0.3,0,1.69117,ITO,PCBM,ZnO,25.0,NiOx,25.0,Al,two-step,spin,CB,DMF/DMSO,100.0,10.0,22.2,1.023,0.82,17.7
0.07,0.9,0.03,2.76,0.24,1,1.69576,FTO,c-TiO2,mp-TiO2,28.0,spiro/Gual,172.0,Au,two-step,spin,CB,DMF/DMSO/GuaI,150.0,30.0,24.5,1.12,0.75,21
0.05,0.7885,0.1615,2.49,0.51,1,1.84427,ITO,SnO2,unknown,30.0,spiro,165.0,Ag,one-step,spin,CB,DMF/DMSO,120.0,2.0,21.2,1.12,0.6478,15.37
0.0,0.33,0.67,0.0,3.0,1,2.29,FTO,c-TiO2,mp-TiO2,21.2,spiro,94.0034,Au,two-step,spin,CB,DMF/DMSO,100.0,30.0,6.4,1.35,0.72,6.4
0.05,0.87,0.08,2.76,0.24,0,1.52698,ITO,BCP,C60,24.2,PTAA,52.0034,Ag,one-step,spin,unknown,DMF/DMSO,100.0,30.0,21.86,1.0,0.77,16.9
0.05,0.7885,0.1615,2.7,0.3,1,1.58,FTO,SnO2,C,40.6,spiro,74.0,Ag,three-step,spin,unknown,DMF/DMSO,100.0,60.0,1.08,22.6,0.74,18
0.05,0.81,0.14,2.86,0.14,0,1.83205,FTO,C60,BCP,28.0,NiOx,172.0,Ag,two-step,spin,toluene,DMF/DMSO,120.0,10.0,23.1,0.93,0.769,16.2
0.0,0.83,0.17,0.0,3.0,1,2.28,FTO,c-TiO2,mp-TiO2,21.2,spiro,94.0034,Au,two-step,spin,CB,DMF/DMSO,100.0,30.0,7.0,1.42,0.65,6.5
0.0,1.0,0.0,3.0,0.0,1,1.68568,ITO,ZnO2,unknown,28.0,spiro,172.0,Ag,two-step,spin,CB,DMSO,150.0,5.0,18.82,1.11,0.6284,13.11
0.05,0.9,0.05,3.0,0.0,1,1.52658,FTO,c-TiO2,meso-TiO2,20.016,spiro,0.07,Au,two-step,spin,hlorobenzene,DMF/DMSO,100.0,60.0,25.32,1.12,0.837,23.76
0.05,0.8,0.15,2.55,0.45,1,1.53691,FTO,TiO2,unknown,46.208,spiro,200.62,Au,two-step,spin,CB,DMF/DMSO/RbI,100.0,60.0,23.06,1.1395,0.78,20.5
0.05,0.745,0.255,2.235,0.765,1,1.69478,FTO,c-TiO2,mp-TiO2,21.2,spiro,177.2,Au,one-step,spin,unknown,DMF/DMSO,100.0,3.0,18.56,1.016,0.6116,11.54
0.0,0.83,0.17,2.49,0.51,1,1.69005,FTO,c-TiO2,mp-TiO2,22.2,spiro,94.0034,Au,two-step,spin,CB,DMF/DMSO,100.0,30.0,19.2,1.1,0.77,16.3
0.1,0.75,0.15,2.55,0.45,1,1.60329,ITO,SpinSnO2,unknown,34.6,spiro,150.22,Ag,two-step,spin,EA/HEX,DMF/DMSO,100.0,60.0,17.92,1.168,0.7056,13.48
0.0,0.87,0.13,3.0,0.0,1,1.52,FTO,c-TiO2,unknown,42.4,spiro,102.0,Au,two-step,spin,toluene,DMF,110.0,40.0,15.7,1.0,0.56,8.73
0.0,0.67,0.33,0.5,2.5,1,2.11,FTO,c-TiO2,mp-TiO2,21.2,spiro,94.0034,Au,two-step,spin,CB,DMF/DMSO,100.0,30.0,7.2,0.92,0.51,3.4
0.05,0.81,0.14,2.55,0.45,1,1.53408,FTO,TiO2,unknown,72.6,spiro,60.028,Au,two-step,spin,CB,DMF/DMSO,100.0,60.0,28.48,1.02,0.5505,15.99
0.05,0.87,0.08,2.76,0.24,0,1.69576,ITO,BCP,C60,24.2,PTAA,59.0034,Ag,one-step,spin,unknown,DMF/DMSO/BMIM:BF4,100.0,30.0,22.48,1.02,0.712,16.3
0.8,0.0,0.2,3.0,0.0,0,1.72,ITO,PCBM,unknown,24.0,PEDOT:PSS,198.0,Al,one-step,spin,toluene,GBL/DMF,110.0,10.0,0.58,0.84,0.46,0.22
0.05,0.8,0.15,2.85,0.15,1,1.55,unknown,unknown,unknown,72.6,unknown,160.4,unknown,unknown,unknown,unknown,unknown,134.0,26.0,24.1,1.18,0.83,23.7
0.03,0.9409,0.0291,2.91,0.09,1,1.53,unknown,unknown,unknown,72.6,unknown,60.028,unknown,unknown,unknown,unknown,unknown,112.0,51.0,24.6,1.21,0.8,23.8
0.06,0.79,0.15,2.55,0.45,1,1.53671,FTO,c-TiO2,mp-TiO2,46.208,spiro,200.62,Au,two-step,spin,CB,DMF/DMSO,100.0,60.0,22.95,1.121,0.78,20
0.1,0.36,0.54,2.8,0.2,1,1.647,FTO,TiO2,Al2O3,21.2,NiO,94.0034,C,two-step,spin,unknown,DMF/DMSO,100.0,30.0,17.63,0.903,0.6637,10.57
0.05,0.86,0.09,2.91,0.09,1,1.56,FTO,SnO2,unknown,32.8,spiro,190.22,Ag,two-step,spin,CB,DMF,100.0,60.0,21.0,0.987,0.453,9.4
0.0,0.4,0.6,3.0,0.0,1,1.53,FTO,c-TiO2,mp-TiO2,32.8,spiro,150.22,Au,one-step,spin,toluene,DMSO,100.0,60.0,20.87,0.975,0.6997,14.23
0.0,0.33,0.67,2.0,1.0,1,1.76,FTO,c-TiO2,mp-TiO2,22.2,spiro,94.0034,Au,two-step,spin,CB,DMF/DMSO,100.0,30.0,20.4,1.17,0.73,17.5
0.25,0.5625,0.1875,2.1,0.9,0,1.76,ITO,C,BCP,21.2,PTAA,94.0034,Cu,two-step,spin,unknown,DMF/NMP,100.0,30.0,16.7,1.17,0.696,13.6
0.1,0.747,0.153,2.49,0.51,1,1.69005,FTO,ALD-TiO2,mp-TiO2,36.008,spiro,190.22,Cu,two-step,spin,CB,DMF/DMSO,100.0,60.0,21.8,1.1,0.73,17.5
0.15,0.7,0.15,3.0,0.0,1,1.68568,ITO,ZnO2,unknown,26.0,spiro,120.0,Ag,two-step,spin,CB,DMSO,110.0,5.0,23.08,1.13,0.7494,19.54
0.05,0.87,0.08,2.76,0.24,0,1.52914,ITO,BCP,C60,23.2,PTAA,55.2034,Ag,one-step,spin,unknown,DMF/DMSO/PA,100.0,30.0,21.4,0.92,0.589,11.8
0.05,0.7885,0.1615,2.49,0.51,1,1.69576,FTO,Li-TiO2,unknown,46.208,spiro,200.62,Au,one-step,coat,BCl,DMF/DMSO,100.0,60.0,23.1,1.09,0.627,15.7
0.1,0.75,0.15,2.01,0.99,1,1.73,unknown,unknown,unknown,32.0,unknown,154.014,unknown,unknown,unknown,unknown,unknown,100.0,32.0,18.04,1.13,0.7464,17.3
0.1,0.765,0.135,2.55,0.45,1,1.611,FTO,c-TiO2,mp-TiO2,32.6,spiro,190.22,Au,one-step,spin,CB,DMF/DMSO,100.0,60.0,21.28,1.061,0.6955,15.71
0.17,0.83,0.0,1.8,1.2,1,1.75,unknown,unknown,unknown,30.0,unknown,176.0,unknown,unknown,unknown,unknown,unknown,110.0,27.0,19.8,1.2,0.751,17.1
0.06,0.8,0.14,2.58,0.42,1,1.69477,FTO,TiO2,unknown,24.2,spiro,55.0034,Ag,two-step,spin,CB,DMF/DMSO/TPL,100.0,30.0,23.46,1.12,0.807,21.38
0.1,0.747,0.153,2.49,0.51,1,1.69005,FTO,c-TiO2,mp-TiO2,72.6,spiro,200.62,Cu,two-step,spin,CB,DMF/DMSO,100.0,60.0,23.5,1.11,0.77,20
0.05,0.87,0.08,2.76,0.24,0,1.56097,ITO,BCP,C60,24.2,NiOx/PTAA,59.0034,Ag,one-step,spin,unknown,DMF/DMSO/BMIM:BF4,100.0,30.0,22.99,1.04,0.745,17.8
0.05,0.7125,0.2375,2.1,0.9,0,1.73,ITO,C,BCP,21.2,PTAA,94.0034,Cu,two-step,spin,unknown,DMF/NMP,100.0,30.0,15.0,1.13,0.66,11.2
0.05,0.7885,0.1615,2.515,0.4845,0,1.68654,ITO,C,unknown,34.008,0.015PTAA/PS,190.22,Cu,one-step,spin,diethyl ether,DMF/DMSO,100.0,60.0,22.5,1.11,0.799,19.9
0.2,0.8,0.0,3.0,0.0,1,1.55,FTO,c-TiO2,unknown,28.0,spiro,172.0,Ag,one-step,spin,unknown,DMF/DMSO,185.0,30.0,20.75,0.7,0.53,7.67
0.05,0.7125,0.2375,2.49,0.51,0,1.65,ITO,C,BCP,22.2,PTAA,94.0034,Cu,two-step,spin,unknown,DMF/NMP,100.0,30.0,19.5,1.07,0.704,14.6
0.05,0.79,0.16,2.7,0.3,0,1.69729,ITO,GF:PCBM,BCP,38.0,Meo2PACz SAM,104.02,Ag,unknown,unknown,unknown,unknown,100.0,60.0,22.4,1.098,0.85,20.8
0.0,0.83,0.17,2.0,1.0,1,1.68,FTO,c-TiO2,mp-TiO2,22.2,spiro,94.0034,Au,two-step,spin,CB,DMF/DMSO,100.0,30.0,19.1,1.18,0.65,14.7
0.05,0.8,0.15,2.4,0.6,1,1.654,ITO,TiO2,unknown,42.4,CuSCN,102.0,Cu,unknown,unknown,unknown,unknown,102.0,42.0,16.927,1.14,0.727,14.024
0.05,0.7885,0.1615,2.49,0.51,1,1.63352,ITO,SnO2,unknown,52.0,3TPFPB/spiro,104.0,Au,two-step,spin,CB,DMF/DMSO,110.0,50.0,23.09,1.137,0.763,20.04
0.05,0.8,0.15,2.85,0.15,1,1.84453,FTO,SnO2,unknown,72.6,spiro,205.6,Ag,unknown,unknown,unknown,unknown,140.0,31.0,24.02,1.09,0.76,19.93
0.05,0.7125,0.2375,2.28,0.72,0,1.68,ITO,C,BCP,21.2,PTAA,94.0034,Cu,two-step,spin,unknown,DMF/NMP,100.0,30.0,17.5,1.11,0.733,14.3
0.3,0.0,0.7,3.0,0.0,0,1.58,ITO,PCBM,unknown,24.0,PEDOT:PSS,198.0,Al,one-step,spin,toluene,GBL/DMF,110.0,10.0,5.85,1.04,0.62,3.78
0.05,0.8,0.15,2.55,0.45,1,1.69576,FTO,c-TiO2,unknown,34.008,spiro,190.22,Au,two-step,spin,CB,DMF/DMSO,100.0,60.0,22.39,1.104,0.75,18.24
0.0,0.85,0.15,2.55,0.45,1,1.69576,ITO,SnO2,unknown,28.0,spiro,172.0,Au,two-step,spin,EA,DMF/DMSO,130.0,30.0,20.92,1.12,0.6557,15.46
0.1,0.747,0.153,2.49,0.51,1,1.60329,FTO,c-TiO2,mp-TiO2,80.0,spiro,250.0,Au,one-step,spin,CB,DMF/DMSO,100.0,60.0,22.3,1.09,0.73,17.8
0.0,0.85,0.15,2.55,0.45,1,1.68654,ITO,SnO2,unknown,28.0,spiro,172.0,Au,two-step,spin,CB,DMF/DMSO,130.0,30.0,22.13,1.15,0.7141,18.17
0.05,0.7885,0.1615,3.0,0.0,1,1.69576,ITO,SnO2,unknown,24.2,spiro,65.2,Au,two-step,R2R,CB,DMF/DMSO,100.0,10.0,21.67,0.82,0.6826,12.08
0.05,0.7885,0.1615,2.49,0.51,1,1.83205,ITO,SnO2,unknown,30.0,spiro,165.0,Ag,one-step,spin,CB,DMF/DMSO,120.0,10.0,19.96,1.13,0.6966,15.73
0.05,0.87,0.08,2.76,0.24,0,1.69576,ITO,BCP,C60,24.2,PTAA,59.0034,Ag,one-step,spin,unknown,DMF/DMSO/BMIM:BF4/4F-PEAI/Pb(SCN)2,100.0,30.0,22.16,1.05,0.75,17.3
0.175,0.75,0.075,2.64,0.36,0,1.68575,ITO,NiOx,unknown,23.2,PCBM/ZnO,55.2034,Ag,two-step,spin,CB,DMF/DMSO,100.0,30.0,21.24,1.09,0.7757,18.14
0.05,0.7885,0.1615,2.49,0.51,1,1.69073,FTO,c-TiO2,unknown,26.208,spiro,190.22,Au,two-step,R2R,CB,DMF/DMSO,100.0,60.0,21.6,1.112,0.733,17.6
0.0,1.0,0.0,2.0,1.0,1,2.27,FTO,c-TiO2,mp-TiO2,21.2,spiro,94.0034,Au,two-step,spin,CB,DMF/DMSO,100.0,30.0,3.9,0.99,0.5,1.9
0.0,0.17,0.83,2.0,1.0,1,1.76,FTO,c-TiO2,mp-TiO2,21.2,spiro,94.0034,Au,two-step,spin,CB,DMF/DMSO,100.0,30.0,16.7,1.12,0.65,12.2
0.05,0.7885,0.1615,2.49,0.51,1,1.69477,FTO,3%Nb–PlanarTiO2,unknown,34.6,unknown,160.22,Au,one-step,spin,CB,DMF/DMSO,100.0,60.0,16.37,0.8,0.51,6.67
0.17,0.83,0.0,2.25,0.75,0,1.68,ITO,C,BCP,21.2,PTAA,98.0034,Ag,three-step,spin,unknown,DMF/DMSO,100.0,30.0,1.1,19.0,0.74,15.4
0.05,0.7885,0.1615,2.7,0.3,1,1.55,FTO,SnO2,C,40.6,spiro,74.0,Ag,three-step,CAGQ,unknown,DMF/DMSO,100.0,60.0,0.9,18.3,0.58,8.9
0.0,0.0,1.0,3.0,0.0,1,1.58,FTO,SnO2,C,40.6,spiro,74.0,Ag,three-step,CAGQ,unknown,DMF/DMSO,100.0,60.0,0.81,16.3,0.53,7.5
0.0,0.0,1.0,2.55,0.45,1,1.53797,FTO,TiO2,unknown,32.8,spiro,150.22,Au,two-step,spin,CB,DMF/DMSO,100.0,60.0,20.5,1.0254,0.7,14.7
0.0,0.0,1.0,3.0,0.0,1,1.6906,FTO,c-TiO2,mp-TiO2,32.6,spiro,150.22,Au,one-step,spin,toluene,DMSO,100.0,60.0,19.79,0.987,0.7418,14.49
0.05,0.7885,0.1615,2.7,0.3,0,1.58,FTO,PCBM,BCP,40.6,ployTPD:F4-TCNQ,74.0,Ag,three-step,spin,unknown,DMF/DMSO,100.0,60.0,0.95,20.0,0.78,15.4
0.0,0.0,1.0,3.0,0.0,0,1.6,ITO,PCBM,unknown,23.2,PEDOT:PSS,104.2,Ag,two-step,spin,CB,DMF/DMSO,100.0,10.0,19.6,0.92,0.73,14.07
0.0,0.67,0.33,2.5,0.5,1,1.64,FTO,c-TiO2,mp-TiO2,24.2,spiro,59.0034,Au,two-step,spin,CB,DMF/DMSO,100.0,30.0,23.7,1.14,0.76,20.7
0.0,0.0,1.0,1.5,1.5,1,1.87,ITO,C60,unknown,48.0,TaTm,102.0,Au,Vacuum Deposited,unknown,unknown,unknown,102.0,28.0,10.5,1.206,0.791,10
0.0,0.33,0.67,0.5,2.5,1,2.14,FTO,c-TiO2,mp-TiO2,21.2,spiro,94.0034,Au,two-step,spin,CB,DMF/DMSO,100.0,30.0,4.4,0.99,0.66,2.9
0.15,0.75,0.1,2.49,0.51,1,1.66576,FTO,c-TiO2,mp-TiO2,31.0,spiro,50.0314,Au,two-step,spin,CB,DMF/DMSO,100.0,60.0,21.1,1.06,0.75,16.8
0.05,0.83,0.12,2.61,0.39,1,1.61,FTO,c-TiO2,mp-TiO2,32.008,spiro,190.22,Au,two-step,spin,CB,DMF/DMSO,100.0,50.0,22.21,1.097,0.785, 19.11
0.05,0.7885,0.1615,2.49,0.51,1,1.5427,ITO,SnO2,unknown,30.0,spiro,165.0,Ag,one-step,spin,CB,DMF/DMSO,120.0,20.0,19.78,1.14,0.7534,17.04
1.0,0.0,0.0,3.0,0.0,0,2.05,ITO,PCBM,unknown,24.0,PEDOT:PSS,198.0,Al,one-step,spin,toluene,GBL/DMF,110.0,10.0,0.26,0.79,0.45,0.09
0.0,0.8,0.2,2.4,0.6,1,1.64,ITO,TiO2,unknown,23.2,spiro,104.2,Au,one-step,spin,CB,DMF/DMSO,100.0,10.0,20.48,1.03,0.64,13.48
0.17,0.83,0.0,1.5,1.5,1,1.86,FTO,SnO2,unknown,34.6,spiro,160.22,Au,two-step,spin,CB,DMF/DMSO,100.0,60.0,15.1,1.296,0.674,15.01
0.0,0.85,0.15,2.55,0.45,1,1.69576,ITO,SnO2,unknown,28.0,spiro,172.0,Au,two-step,spin,EA/0.4Hex,DMF/DMSO,130.0,30.0,21.74,1.16,0.6985,17.52
0.0,0.95,0.05,2.85,0.15,1,1.67593,ITO,SnO2,unknown,28.0,P3HT,172.0,Au,two-step,R2R,tBuOH/EA,DMF/DMSO,120.0,30.0,20.9,0.96,0.681,13.8
0.0,0.0,1.0,3.0,0.0,0,1.61,ITO,C60,PCBM,23.2,NiOx,104.2,Ag,two-step,spin,toluene,DMF/DMSO,100.0,10.0,20.13,1.05,0.73,15.43
0.02,0.38,0.6,2.975,0.025,0,1.73941,ITO,PCBM,unknown,24.2,PEDOT:PSS,65.2,PEIE/Ag,one-step,coat,unknown,DMF,100.0,10.0,21.35,1.0,0.6865,14.66
0.0,0.7,0.3,2.1,0.9,1,1.69,ITO,TiO2,unknown,22.2,spiro,139.2,Au,one-step,spin,CB,DMF/DMSO,100.0,10.0,17.97,1.07,0.62,12.58
0.0,0.85,0.15,2.55,0.45,1,1.68654,ITO,SnO2,unknown,28.0,spiro,172.0,Au,two-step,spin,TL,DMF/DMSO,130.0,30.0,20.92,1.11,0.7322,17.01
0.0,0.5,0.5,0.5,2.5,1,2.14,FTO,c-TiO2,mp-TiO2,21.2,spiro,94.0034,Au,two-step,spin,CB,DMF/DMSO,100.0,30.0,6.9,0.98,0.58,3.9
0.0,0.95,0.05,2.85,0.15,1,1.69377,ITO,SnO2,unknown,28.0,spiro,172.0,Au,two-step,spin,CB,DMF/DMSO,120.0,30.0,23.4,1.13,0.837,22.2
0.05,0.7125,0.2375,2.4,0.6,0,1.67,ITO,C,BCP,22.2,PTAA,94.0034,Cu,two-step,spin,unknown,DMF/NMP,100.0,30.0,18.8,1.11,0.714,14.9
0.05,0.87,0.08,2.76,0.24,0,1.69576,ITO,BCP,C60,24.2,PTAA,59.0034,Ag,one-step,spin,unknown,DMF/DMSO/MASCN,100.0,30.0,22.46,0.98,0.783,17.3
0.05,0.8,0.15,2.55,0.45,1,1.69576,FTO,TiO2,unknown,72.6,spiro,200.62,Au,two-step,spin,CB,DMF/DMSO/KI,100.0,60.0,23.215,1.162,0.765,20.65
0.05,0.87,0.08,2.76,0.24,0,1.69576,ITO,BCP,C60,22.2,PTAA,94.0034,Ag,one-step,spin,unknown,DMF/DMSO/Y6,100.0,30.0,20.1,0.99,0.68,13.6
0.03,0.945,0.025,2.925,0.075,1,1.76235,ITO,SnO2,unknown,28.0,spiro,172.0,Ag,two-step,spin,unknown,DMF/DMSO,150.0,20.0,24.22,1.12,0.702,19.5
0.05,0.7885,0.1615,2.515,0.4845,0,1.68568,ITO,C,unknown,32.8,0.05PTAA,190.22,Cu,one-step,spin,diethyl ether,DMF/DMSO,100.0,60.0,21.1,0.94,0.821,16.3
0.05,0.875,0.075,2.835,0.225,1,1.60329,FTO,c-TiO2,mp-TiO2,52.0,TBTA[6]H/TBPHTFSI,104.0,Au,two-step,spin,CB,DMF/DMSO,120.0,60.0,24.47,1.1,0.779,21
0.05,0.7885,0.1615,2.515,0.4845,0,1.68724,ITO,C,unknown,26.208,0.066PTAA,190.22,Cu,one-step,spin,diethyl ether,DMF/DMSO,100.0,60.0,21.6,1.09,0.65,15.4
0.16,0.8,0.04,1.5,1.5,0,1.84464,FTO,PCBM,BCP,21.2,PTAA,177.2,Ag,one-step,spin,CB,DMF/DMSO,100.0,15.0,17.64,1.22,0.73,15.7
0.0,0.65,0.35,3.0,0.0,0,1.52,ITO,C60,PCBM,23.2,NiOx,104.2,Ag,two-step,spin,toluene,DMF/DMSO,100.0,10.0,19.43,0.98,0.58,11.04
0.25,0.75,0.0,2.4,0.6,0,1.68,ITO,C,BCP,22.2,PTAA,98.0034,Ag,three-step,spin,unknown,DMF/DMSO,100.0,30.0,1.1,19.4,0.81,17.4
0.05,0.87,0.08,2.76,0.24,0,1.69576,ITO,BCP,C60,24.2,NiOx/PTAA,59.0034,Ag,one-step,spin,unknown,DMF/DMSO/4F-PEAI/Pb(SCN)2,100.0,30.0,22.92,1.08,0.781,19.2
0.1,0.747,0.153,2.49,0.51,1,1.698575,FTO,c-TiO2,mp-TiO2,30.0,spiro,50.0314,Au,two-step,spin,CB,DMF/DMSO,100.0,60.0,22.0,1.13,0.77,19.1
0.0,0.0,1.0,3.0,0.0,0,1.61,FTO,PCBM,BCP,40.6,ployTPD:F4-TCNQ,74.0,Ag,three-step,spin,unknown,DMF/DMSO,100.0,60.0,1.04,18.9,0.79,15.6
0.0,1.0,0.0,3.0,0.0,0,1.51,ITO,C60,PCBM,28.0,NiOx,172.0,Ag,two-step,spin,toluene,DMF/DMSO,150.0,10.0,20.76,0.96,0.63,12.56
0.0,1.0,0.0,3.0,0.0,1,1.48,FTO,c-TiO2,unknown,28.0,spiro,172.0,Ag,one-step,spin,unknown,DMF/DMSO,185.0,30.0,15.28,0.72,0.36,3.94
0.15,0.65,0.2,2.4,0.6,1,1.68,unknown,unknown,unknown,37.4,unknown,131.2,unknown,unknown,unknown,unknown,unknown,104.0,38.0,21.2,1.17,0.798,19.8
0.05,0.87,0.08,2.76,0.24,0,1.69576,ITO,BCP,C60,24.2,PTAA,59.0034,Ag,one-step,spin,unknown,DMF/DMSO/4F-PEAI/Pb(SCN)2,100.0,30.0,22.0,1.05,0.766,17.7
0.05,0.75,0.2,2.88,0.12,1,1.69576,ITO,SnO2,unknown,28.0,spiro,172.0,Au,two-step,spin,unknown,DMF/DMSO,150.0,15.0,25.19,1.13,0.804,22.97
0.15,0.85,0.0,3.0,0.0,1,1.60582,ITO,ZnO2,unknown,28.0,spiro,172.0,Ag,two-step,spin,CB,DMSO,130.0,5.0,21.4,1.12,0.6969,16.7
0.15,0.6375,0.2125,2.7,0.3,0,1.63,ITO,C,BCP,23.2,PTAA,55.2034,Cu,two-step,spin,unknown,DMF/NMP,100.0,30.0,21.2,1.06,0.722,16.2
0.05,0.79,0.15,2.45,0.55,1,1.683195,ITO,SnO2,unknown,46.208,spiro,190.22,Au,two-step,spin,CB,DMF/DMSO,100.0,60.0,22.83,1.1,0.7762,18.38
0.15,0.7055,0.1445,2.49,0.51,1,1.60329,FTO,TiO2,unknown,60.0,spiro,80.0,Au,two-step,spin,CB,DMF/DMSO,110.0,60.0,18.57,0.98,0.6123,11.27
0.0,0.75,0.25,2.49,0.51,1,1.75839,FTO,c-TiO2,mp-TiO2,31.0,spiro,50.0314,Au,two-step,spin,CB,DMF/DMSO,100.0,60.0,18.6,0.906,0.6,10.1
0.0,0.6,0.4,1.8,1.2,1,1.77,ITO,TiO2,unknown,22.2,spiro,139.2,Au,one-step,spin,CB,DMF/DMSO,100.0,10.0,17.21,1.1,0.59,12.19
0.05,0.0,0.95,3.0,0.0,0,1.51,ITO,PCBM,unknown,24.0,PEDOT:PSS,198.0,Al,one-step,spin,toluene,GBL/DMF,110.0,10.0,8.69,1.01,0.72,6.29
0.05,0.7885,0.1615,2.49,0.51,1,1.60329,FTO,3%Nb–mpTiO2,unknown,34.6,unknown,160.22,Au,one-step,spin,CB,DMF/DMSO,100.0,60.0,14.91,0.83,0.44,5.44
0.0,0.85,0.15,1.65,1.35,1,1.8,ITO,TiO2,unknown,22.2,spiro,139.2,Au,one-step,spin,CB,DMF/DMSO,100.0,10.0,17.27,1.12,0.59,11.59
0.175,0.75,0.075,2.64,0.36,0,1.52752,ITO,PCBM,ZnO,24.2,NiOx,65.2,Ag,two-step,spin,HEA,DMF/DMSO,100.0,10.0,21.6,1.12,0.7905,19.2
0.05,0.7885,0.1615,2.49,0.51,1,1.69576,FTO,1%Nb–PlanarTiO2,unknown,34.6,unknown,160.22,Au,one-step,spin,CB,DMF/DMSO,100.0,60.0,15.97,0.81,0.44,5.69
0.25,0.75,0.0,3.0,0.0,1,1.54,FTO,c-TiO2,unknown,28.0,spiro,172.0,Ag,one-step,spin,unknown,DMF/DMSO,185.0,30.0,22.61,0.83,0.51,9.48
0.05,0.7885,0.1615,2.49,0.51,1,1.5394,ITO,SnO2,unknown,72.6,spiro,150.428,Au,two-step,spin,CB,DMF/DMSO,100.0,60.0,26.04,1.005,0.709,18.58
0.05,0.95,0.0,3.0,0.0,1,1.69477,ITO,ZnO2,unknown,28.0,spiro,172.0,Ag,two-step,spin,CB,DMSO,130.0,5.0,19.66,1.12,0.6434,14.17
0.05,0.81,0.14,2.55,0.45,1,1.68568,ITO,SnO2,unknown,28.0,spiro,172.0,Au,two-step,spin,CB,DMSO,130.0,10.0,20.7,1.05,0.745,16.6
0.065,0.6545,0.2805,2.67,0.33,1,1.68539,ITO,SnO2,unknown,28.0,2PeRyLene/P3HT/MoO3,172.0,Al,two-step,spin,unknown,DMF/DMSO,150.0,15.0,22.43,1.03,0.6248,14.24
0.06,0.8,0.14,2.58,0.42,1,1.68575,FTO,TiO2,unknown,24.2,spiro,55.0034,Ag,two-step,spin,CB,DMF/DMSO/APL,100.0,30.0,23.86,1.13,0.818,22.1
0.05,0.87,0.08,2.76,0.24,0,1.91931,ITO,BCP,C60,24.2,NiOx/PTAA,59.0034,Ag,one-step,spin,unknown,DMF/DMSO/BMIM:BF4/4F-PEAI/Pb(SCN)2,100.0,30.0,22.83,1.035,0.712,16.3
0.1,0.747,0.153,2.49,0.51,1,1.60329,FTO,TiO2,unknown,60.0,spiro,80.0,Au,two-step,spin,CB,DMF/DMSO,110.0,60.0,19.11,1.06,0.6374,12.55
0.15,0.85,0.0,3.0,0.0,1,1.52,FTO,c-TiO2,unknown,28.0,spiro,172.0,Ag,three-step,spin,toluene,DMF/DMSO,170.0,10.0,20.39,1.06,0.74,16.1
0.0,0.0,1.0,0.5,2.5,1,2.16,FTO,c-TiO2,mp-TiO2,21.2,spiro,133.0034,Au,two-step,spin,CB,DMF/DMSO,100.0,30.0,3.0,1.07,1.07,3.5
0.05,0.81,0.14,2.55,0.45,1,1.53847,ITO,SnO2-KCl,Al2O3,28.0,spiro,172.0,Au,one-step,spin,unknown,DMF/DMSO,120.0,10.0,24.1,1.16,0.72,20.12
0.0,0.75,0.25,2.25,0.75,1,1.67,ITO,TiO2,unknown,23.2,spiro,104.2,Au,one-step,spin,CB,DMF/DMSO,100.0,10.0,20.88,1.05,0.57,15.83
0.07,0.9,0.03,2.76,0.24,1,1.69576,FTO,c-TiO2,mp-TiO2,28.0,spiro/IAI,172.0,Au,two-step,spin,CB,DMF/DMSO/EAI,150.0,30.0,24.14,1.12,0.81,22.4
0.0,0.67,0.33,1.0,2.0,1,1.97,FTO,c-TiO2,mp-TiO2,21.2,spiro,94.0034,Au,two-step,spin,CB,DMF/DMSO,100.0,30.0,9.5,1.0,0.59,5.6
0.0,1.0,0.0,3.0,0.0,1,1.52,FTO,c-TiO2,mp-TiO2,28.0,spiro,172.0,Au,two-step,spin,CB,DMF/DMSO,150.0,30.0,13.5,0.99,0.36,4.8
0.0,0.95,0.05,2.94,0.06,1,1.84453,FTO,c-TiO2,mp-TiO2,28.0,spiro,172.0,Au,one-step,spin,CB,DMF/DMSO,150.0,30.0,20.18,0.972,0.665,13.04
0.05,0.7885,0.1615,2.49,0.51,1,1.62,ITO,SnO2,unknown,24.808,PTAA,0.017,Ag,two-step,spin,ANI ,DMF:DMSO:NMP,100.0,40.0,20.33,1.01,0.8073,16.5
0.0,0.85,0.15,2.7,0.3,1,1.55,FTO,SnO2,C,40.6,spiro,74.0,Ag,three-step,CAGQ,unknown,DMF/DMSO,100.0,60.0,0.81,17.0,0.5,6.3
0.0,0.83,0.17,2.49,0.51,1,1.69576,FTO,c-TiO2,mp-TiO2,32.6,spiro,150.22,Au,two-step,spin,CB,DMF/DMSO,100.0,60.0,20.2,1.13,0.64,14.6
0.13,0.77,0.0,2.46,0.54,1,1.62,unknown,unknown,unknown,38.0,unknown,104.02,unknown,unknown,unknown,unknown,unknown,104.0,58.0,22.3,1.25,0.8,22.3
0.05,0.8,0.15,2.85,0.15,1,1.5685,ITO,TiO2,unknown,46.2,CuSCN,108.0,Cu,unknown,unknown,unknown,unknown,100.0,50.0,18.875,1.02,0.769,14.812
0.1,0.76,0.14,2.58,0.42,1,1.68654,FTO,TiO2,unknown,62.6,spiro,200.62,Au,two-step,spin,CB,DMF/DMSO,100.0,60.0,23.18,1.07,0.783,19.01
0.0,0.0,1.0,3.0,0.0,1,1.70569,ITO,SnO2,unknown,20.0,spiro,220.0,Ag,one-step,spin,CB,DMF/DMSO,100.0,10.0,21.0,1.05,0.723,16.1
0.05,0.7885,0.1615,2.49,0.51,1,1.68558,ITO,SnO2,unknown,30.0,spiro,165.0,Ag,one-step,spin,CB,DMF/DMSO,120.0,10.0,21.32,1.14,0.7622,18.57
0.05,0.7885,0.1615,2.49,0.51,1,1.69576,FTO,PlanarTiO2,unknown,34.6,unknown,160.22,Au,one-step,spin,CB,DMF/DMSO,100.0,60.0,15.61,0.8,0.43,5.37
0.05,0.7885,0.1615,2.7,0.3,0,1.69477,PEN/ITO,PCBM,ZnO,26.0,NiOx,26.0,Al,two-step,spin,CB,DMF/DMSO,100.0,10.0,21.2,1.027,0.76,16.1
0.05,0.7885,0.1615,2.49,0.51,1,1.68558,FTO,mpTiO2,unknown,34.6,unknown,160.22,Au,one-step,spin,CB,DMF/DMSO,100.0,60.0,14.4,0.84,0.39,4.72
0.2,0.664,0.136,1.95,1.05,1,1.77,FTO,SnO2,C,40.6,spiro,74.0,Ag,three-step,spin,unknown,DMF/DMSO,100.0,60.0,1.07,16.5,0.69,12
0.0,0.85,0.15,2.55,0.45,1,1.69576,ITO,SnO2,unknown,28.0,spiro,172.0,Au,two-step,spin,EA/0.3Hex,DMF/DMSO,130.0,30.0,22.56,1.15,0.7263,18.37
0.2,0.8,0.0,1.95,1.05,0,1.76,FTO,PCBM,BCP,28.0,ployTPD:F4-TCNQ,172.0,Ag,three-step,CAGQ,unknown,DMF/DMSO,150.0,30.0,0.91,14.1,0.49,6.3
0.0,0.9,0.1,2.7,0.3,1,1.59,ITO,TiO2,unknown,24.2,spiro,65.2,Au,one-step,spin,CB,DMF/DMSO,100.0,10.0,21.5,1.03,0.59,15.3
0.0,0.4,0.6,3.0,0.0,0,1.55,ITO,C,BCP,46.208,PTAA,200.62,Cu,one-step,spin,toluene,DCB,100.0,60.0,23.0,1.03,0.77,18.3
0.25,0.75,0.0,2.49,0.51,1,1.54228,FTO,c-TiO2,mp-TiO2,31.0,spiro,50.0314,Au,two-step,spin,CB,DMF/DMSO,100.0,60.0,20.7,1.045,0.66,14.3
0.0,0.5,0.5,1.0,2.0,1,1.96,FTO,c-TiO2,mp-TiO2,21.2,spiro,94.0034,Au,two-step,spin,CB,DMF/DMSO,100.0,30.0,12.6,1.03,0.6,7.9
0.05,0.8075,0.1425,2.55,0.45,1,1.69477,FTO,SnO2,unknown,34.008,D4TBP/spiro,190.22,Au,two-step,spin,CB,DMF/DMSO,100.0,60.0,22.4,1.13,0.74,19
0.05,0.86,0.09,2.91,0.09,1,1.56,FTO,SnO2,unknown,72.6,spiro,200.62,Ag,two-step,spin,CB,DMF/DMSO,100.0,60.0,23.49,1.041,0.748,18.3
0.0,0.0,1.0,2.0,1.0,1,1.7,FTO,c-TiO2,mp-TiO2,21.2,spiro,94.0034,Au,two-step,spin,CB,DMF/DMSO,100.0,30.0,13.2,0.96,0.67,8.5
0.15,0.6,0.25,3.0,0.0,1,1.68568,ITO,ZnO2,unknown,26.0,spiro,120.0,Ag,two-step,spin,CB,DMSO,110.0,5.0,22.81,1.12,0.714,18.24
0.6,0.0,0.4,3.0,0.0,0,1.68,ITO,PCBM,unknown,24.0,PEDOT:PSS,198.0,Al,one-step,spin,toluene,GBL/DMF,110.0,10.0,1.5,1.01,0.52,0.79
0.05,0.81,0.14,2.55,0.45,1,1.53691,ITO,SnO2,unknown,34.008,spiro,104.02,unknown,unknown,unknown,unknown,DMF/DMSO,100.0,52.0,22.5,1.11,0.78,19.4
0.05,0.87,0.08,2.76,0.24,0,1.52658,ITO,BCP,C60,24.2,NiOx/PTAA,59.0034,Ag,one-step,spin,unknown,DMF/DMSO,100.0,30.0,22.35,1.03,0.764,17.7
0.0,0.0,1.0,3.0,0.0,1,1.61,FTO,SnO2,C,40.6,spiro,74.0,Ag,three-step,spin,unknown,DMF/DMSO,100.0,60.0,1.05,21.2,0.74,16.5
0.0,0.4,0.6,2.8,0.2,1,1.617,FTO,TiO2,Al2O3,24.2,NiO,59.0034,C,two-step,spin,unknown,DMF/DMSO,100.0,30.0,22.31,0.953,0.7,14.88
0.06,0.8,0.14,2.58,0.42,1,1.68575,FTO,TiO2,unknown,24.2,spiro,55.0034,Ag,two-step,spin,CB,DMF/DMSO/1.5APL,100.0,30.0,23.53,1.09,0.816,20.97
0.05,0.38,0.57,2.8,0.2,1,1.63,FTO,TiO2,Al2O3,24.2,NiO,59.0034,C,two-step,spin,unknown,DMF/DMSO,100.0,30.0,23.4,1.008,0.7214,17.02
0.1,0.75,0.15,2.55,0.45,1,1.60329,ITO,BilayerSnO2,unknown,34.6,spiro,150.22,Ag,two-step,spin,EA/HEX,DMF/DMSO,100.0,60.0,18.32,1.187,0.7773,15.76
0.0,0.17,0.83,0.0,3.0,1,2.3,FTO,c-TiO2,mp-TiO2,21.2,spiro,94.0034,Au,two-step,spin,CB,DMF/DMSO,100.0,30.0,6.3,1.37,0.81,7.1
0.0,1.0,0.0,3.0,0.0,1,1.52,FTO,SnO2,C,28.0,spiro,172.0,Ag,three-step,spin,unknown,DMF/DMSO,150.0,30.0,0.95,22.3,0.75,16.1
0.05,0.855,0.095,2.75,0.3,1,1.537,FTO,TiO2,unknown,72.6,spiro,200.614,Au,two-step,spin,CB,DMF/DMSO,100.0,60.0,24.13,1.131,0.768,21
0.15,0.85,0.0,3.0,0.0,1,1.54,FTO,c-TiO2,unknown,28.0,spiro,172.0,Ag,one-step,spin,unknown,DMF/DMSO,185.0,30.0,22.61,0.86,0.64,12.35
0.0,0.85,0.15,2.55,0.45,1,1.62,FTO,c-TiO2,mp-TiO2,26.208,spiro,190.22,Au,one-step,spin,CB,DMF/DMSO,100.0,60.0,21.47,1.027,0.6916,15.24
0.05,0.8075,0.1425,2.55,0.45,1,1.69117,FTO,CsF/SnO2,unknown,72.6,D4TBP/spiro,200.62,Au,two-step,spin,CB,DMF/DMSO,100.0,60.0,23.2,1.16,0.76,20.4
0.05,0.7885,0.1615,2.7,0.3,0,1.55,FTO,PCBM,BCP,40.6,ployTPD:F4-TCNQ,74.0,Ag,three-step,CAGQ,unknown,DMF/DMSO,100.0,60.0,0.1,11.2,0.19,0.3
0.25,0.5625,0.1875,2.7,0.3,0,1.64,ITO,C,BCP,22.2,PTAA,94.0034,Cu,two-step,spin,unknown,DMF/NMP,100.0,30.0,19.9,1.07,0.805,17.1
0.06,0.45,0.49,1.86,0.96,1,1.8,FTO,SnO2,unknown,21.2,spiro,94.0034,C,one-step,VTA,CB,DMF/DMSO,100.0,30.0,13.0,1.05,0.51,8.6
0.1,0.9,0.0,3.0,0.0,1,1.60582,ITO,ZnO2,unknown,28.0,spiro,172.0,Ag,two-step,spin,CB,DMSO,130.0,5.0,20.36,1.11,0.706,15.96
0.0,0.5,0.5,3.0,0.0,1,1.69015,FTO,c-TiO2,mp-TiO2,52.0,spiro,104.0,Au,one-step,spin,toluene,DMSO,120.0,60.0,19.92,0.929,0.5499,10.18
0.05,0.8,0.15,2.55,0.45,1,1.53797,FTO,TiO2,unknown,34.008,spiro,190.22,Au,two-step,spin,CB,DMF/DMSO,100.0,60.0,22.595,1.065,0.73,17.6
0.0,0.75,0.25,3.0,0.0,1,1.545,FTO,c-TiO2,mp-TiO2,28.0,spiro,172.0,Au,one-step,spin,toluene,DMF,140.0,10.0,21.1,1.03,0.7138,15.51
0.4,0.6,0.0,2.1,0.9,0,1.75,ITO,C,BCP,21.2,PTAA,98.0034,Ag,three-step,spin,unknown,DMF/DMSO,100.0,30.0,1.17,17.5,0.8,16.3
0.25,0.75,0.0,3.0,0.0,1,1.60582,ITO,ZnO2,unknown,28.0,spiro,172.0,Ag,two-step,spin,CB,DMSO,130.0,5.0,19.5,1.1,0.6344,13.61
0.1,0.9,0.0,3.0,0.0,1,1.55,FTO,c-TiO2,unknown,28.0,spiro,172.0,Ag,one-step,spin,diethyl ether,DMF,150.0,5.0,23.5,1.06,0.663,16.5
0.05,0.87,0.08,2.76,0.24,0,1.69576,ITO,BCP,C60,24.2,NiOx,52.0034,Ag,one-step,spin,unknown,DMF/DMSO,100.0,30.0,21.82,0.87,0.783,14.8
0.07,0.9,0.03,2.76,0.24,1,1.68347,FTO,c-TiO2,mp-TiO2,28.0,spiro/Gual,172.0,Au,two-step,spin,CB,DMF/DMSO/EAI/GuaI,150.0,30.0,22.09,1.11,0.6,14.8
0.05,0.75,0.2,2.49,0.51,1,1.68347,FTO,c-TiO2,mp-TiO2,32.0,spiro,50.0314,Au,two-step,spin,CB,DMF/DMSO,100.0,60.0,17.9,0.913,0.52,8.5
0.1,0.0,0.9,1.8,1.2,0,1.81,ITO,PCBM,BCP,22.2,ployTPD:PEDOT:PSS,139.2,Ag,one-step,spin,toluene,DMF/DMSO,100.0,10.0,1.14,16.9,0.78,15.1
0.0,1.0,0.0,3.0,0.0,1,1.69015,FTO,c-TiO2,unknown,28.0,spiro,172.0,Ag,three-step,spin,toluene,DMF/DMSO,170.0,10.0,19.69,1.06,0.68,14.2
0.0,0.0,1.0,0.0,3.0,1,2.31,FTO,c-TiO2,mp-TiO2,21.2,spiro,94.0034,Au,two-step,spin,CB,DMF/DMSO,100.0,30.0,5.9,1.41,0.67,5.6
0.05,0.8075,0.1425,2.55,0.45,1,1.69576,FTO,c-TiO2,mp-TiO2,34.6,PTB7,160.22,Au,three-step,spin,CB,DMF/DMSO,100.0,60.0,13.65,1.05,0.48,6.91
0.0,0.33,0.67,3.0,0.0,1,1.56,FTO,c-TiO2,mp-TiO2,24.2,spiro,59.0034,Au,two-step,spin,CB,DMF/DMSO,100.0,30.0,22.3,1.0,0.65,14.3
0.08,0.7636,0.1564,2.49,0.51,1,1.60329,FTO,TiO2,unknown,60.0,spiro,80.0,Au,two-step,spin,CB,DMF/DMSO,110.0,60.0,21.05,1.09,0.6731,15.58
0.05,0.8075,0.1425,2.55,0.45,1,1.69576,FTO,c-TiO2,mp-TiO2,34.4,RCP–BTT/dopant,150.22,Au,three-step,spin,CB,DMF/DMSO,100.0,60.0,19.41,1.09,0.69,14.57
0.1,0.747,0.153,2.49,0.51,1,1.69576,FTO,c-TiO2,mp-TiO2,26.208,spiro,190.22,Au,unknown,Inkjet-Printed,unknown,DMF/DMSO,100.0,60.0,21.5,1.06,0.67,12.9
0.2,0.8,0.0,3.0,0.0,1,1.60582,ITO,ZnO2,unknown,28.0,spiro,172.0,Ag,two-step,spin,CB,DMSO,130.0,5.0,19.56,1.1,0.6895,14.48
0.0,0.95,0.05,2.94,0.06,1,1.69477,FTO,c-TiO2,mp-TiO2,28.0,spiro,172.0,Au,one-step,spin,CB,DMF/DMSO,150.0,30.0,20.18,0.972,0.665,13.04
0.05,0.7885,0.1615,2.49,0.51,1,2.31867,FTO,TiO2,unknown,24.2,spiro,61.2,Ag,two-step,spin,CB,DMF/DMSO,100.0,5.0,23.78,1.145,0.7789,21.15
0.05,0.8,0.15,2.25,0.75,1,1.65,unknown,unknown,unknown,37.4,unknown,131.2,unknown,unknown,unknown,unknown,unknown,104.0,38.0,21.2,1.22,0.76,20.8
0.05,0.8075,0.1425,2.55,0.45,1,1.69576,FTO,c-TiO2,mp-TiO2,34.6,PTB7/dopant,150.22,Au,three-step,spin,CB,DMF/DMSO,100.0,60.0,18.23,1.06,0.62,12.02
0.05,0.7885,0.1615,2.49,0.51,0,1.698575,FTO,PCBM,TiO2/BCP,32.6,PEDOT:PSS,150.22,Ag,unknown,spin,CB,DMF/DMSO,100.0,60.0,20.2,0.86,0.70764,13.2
0.05,0.7885,0.1615,2.49,0.51,1,1.75682,FTO,TiO2,unknown,52.0,spiro,104.0,Au,two-step,spin,CB,DMF/DMSO,110.0,50.0,22.28,1.104,0.702,17.28
0.05,0.81,0.14,2.55,0.45,1,1.60582,ITO,SnO2,unknown,34.008,spiro,190.22,Au,two-step,spin,CB,DMF/DMSO,100.0,60.0,22.3,1.08,0.751,18.1
0.6,0.332,0.068,2.49,0.51,1,1.69576,FTO,c-TiO2,mp-TiO2,34.6,spiro,160.22,Au,two-step,spin,CB,DMF/DMSO,100.0,60.0,16.0,0.96,0.7,10.8
0.0,0.85,0.15,2.7,0.3,1,1.58,ITO,TiO2,unknown,24.2,spiro,65.2,Au,one-step,spin,CB,DMF/DMSO,100.0,10.0,21.3,1.06,0.7,15.3
0.0,0.17,0.83,2.5,0.5,1,1.63,FTO,c-TiO2,mp-TiO2,24.2,spiro,59.0034,Au,two-step,spin,CB,DMF/DMSO,100.0,30.0,22.7,1.04,0.68,16
0.05,0.8,0.15,2.7,0.3,1,1.59,ITO,NiOx,unknown,28.0,BCP,172.0,Ag,two-step,spin,CB,DMF/DMSO/GBL,115.0,20.0,23.12,1.16,0.8237,22.09
0.05,0.7885,0.1615,2.49,0.51,1,1.63352,ITO,SnO2,unknown,52.0,7TPFPB/spiro,104.0,Au,two-step,spin,CB,DMF/DMSO,110.0,50.0,22.81,1.152,0.772,20.28
0.0,1.0,0.0,1.5,1.5,1,1.91,FTO,c-TiO2,mp-TiO2,21.2,spiro,94.0034,Au,two-step,spin,CB,DMF/DMSO,100.0,30.0,7.1,1.06,0.5,3.7
0.05,0.7885,0.1615,0.9,2.1,1,1.69477,ITO,SnO2,unknown,22.2,spiro,139.2,Au,two-step,R2R,CB,DMF/DMSO,100.0,10.0,10.52,1.13,0.576,6.88
0.17,0.83,0.0,1.8,1.2,0,1.68654,ITO,C,BCP,21.2,2PACz,94.0034,Ag,unknown,spin,ANI,DMF/DMSO,100.0,30.0,17.0,1.21,0.75,15.2
0.0,0.85,0.15,2.25,0.75,1,1.65,ITO,TiO2,unknown,22.2,spiro,139.2,Au,one-step,spin,CB,DMF/DMSO,100.0,10.0,17.91,1.07,0.64,11.17
0.3,0.6,0.1,2.4,0.6,1,1.7,unknown,unknown,unknown,32.0,unknown,159.0,unknown,unknown,unknown,unknown,unknown,129.0,38.0,19.6,1.2,0.82,19.2
0.1,0.9,0.0,3.0,0.0,1,1.53,FTO,c-TiO2,unknown,28.0,spiro,172.0,Ag,one-step,spin,unknown,DMF/DMSO,185.0,30.0,22.25,0.69,0.45,6.82
0.2,0.8,0.0,1.95,1.05,0,1.76,FTO,PCBM,BCP,28.0,ployTPD:F4-TCNQ,172.0,Ag,three-step,spin,unknown,DMF/DMSO,150.0,30.0,1.07,14.3,0.76,11.6
0.05,0.54,0.41,2.94,0.06,1,1.63836,ITO,SnO2,unknown,28.0,spiro,172.0,Au,two-step,spin,unknown,DMF/DMSO/NaF,150.0,15.0,24.23,1.126,0.8035,21.92
0.05,0.55,0.4,2.88,0.12,1,1.68558,FTO,c-TiO2,SnO2,28.0,spiro,172.0,Au,two-step,coat,unknown,DMF/DMSO,150.0,15.0,22.5,1.089,0.73,18
0.0,0.4,0.6,3.0,0.0,1,1.69484,TCO,ZnO,unknown,32.0,PEDOT:PSS,159.0,Ag,two-step,R2R,CB,unknown,134.0,17.0,19.6,1.04,0.538,11
0.6,0.4,0.0,1.8,1.2,0,1.78,ITO,PCBM,BCP,30.0,PTAA,165.0,Ag,one-step,spin,CB,DMF/DMSO,130.0,10.0,1.12,14.0,0.774,12.1
0.17,0.83,0.0,1.8,1.2,0,1.75,ITO,C,BCP,21.2,PTAA,98.0034,Ag,three-step,spin,unknown,DMF/DMSO,100.0,30.0,1.13,17.4,0.74,14.6
0.04,0.92,0.04,3.0,0.0,0,1.5592,ITO,BCP,unknown,26.2,PTAA,25.0,Ag,two-step,spin,GP,DMF/DMSO,100.0,15.0,24.79,1.05,0.8176,21.08
0.05,0.87,0.08,2.76,0.24,0,1.69576,ITO,BCP,C60,24.2,PTAA,55.0034,Ag,one-step,spin,unknown,DMF/DMSO/KSCN,100.0,30.0,22.54,1.02,0.803,18.5
0.05,0.87,0.08,2.76,0.24,0,1.52914,ITO,BCP,C60,24.2,PTAA,59.0034,Ag,one-step,spin,unknown,DMF/DMSO/4F-PEAI,100.0,30.0,22.25,1.05,0.759,18
0.25,0.5625,0.1875,2.49,0.51,0,1.68,ITO,C,BCP,21.2,PTAA,94.0034,Cu,two-step,spin,unknown,DMF/NMP,100.0,30.0,18.1,1.13,0.674,13.8
0.2,0.0,0.8,3.0,0.0,0,1.57,ITO,PCBM,unknown,24.0,PEDOT:PSS,198.0,Al,one-step,spin,toluene,GBL/DMF,110.0,10.0,6.76,1.04,0.65,4.58
0.04,0.92,0.04,3.0,0.0,0,1.63836,ITO,BCP,unknown,26.2,PTAA,25.0,Ag,two-step,spin,CB,DMF/DMSO,100.0,15.0,24.03,0.98,0.7495,17.62
0.2,0.8,0.0,2.84,0.16,1,1.58,FTO,c-TiO2,mp-TiO2,24.2,spiro,61.2,Au,two-step,spin,CB,DMF/DMSO,100.0,10.0,21.9,1.073,0.742,17.35
0.05,0.87,0.08,2.76,0.24,0,1.69576,ITO,BCP,C60,24.2,PTAA,59.0034,Ag,one-step,spin,unknown,DMF/DMSO/BMIM:BF4/Ga(AcAc)3,100.0,30.0,22.39,1.04,0.718,16.7
0.15,0.75,0.1,3.0,0.0,1,1.60582,ITO,ZnO2,unknown,26.0,spiro,120.0,Ag,two-step,spin,CB,DMSO,110.0,5.0,23.15,1.13,0.7681,20.09
0.06,0.8,0.14,2.58,0.42,1,1.69477,FTO,TiO2,unknown,24.2,spiro,59.0034,Ag,two-step,spin,CB,DMF/DMSO,100.0,30.0,23.06,1.09,0.779,19.61
0.0,1.0,0.0,1.0,2.0,1,1.97,FTO,c-TiO2,mp-TiO2,21.2,spiro,94.0034,Au,two-step,spin,CB,DMF/DMSO,100.0,30.0,12.8,1.14,0.52,7.5
0.0,0.0,1.0,3.0,0.0,1,1.59,FTO,c-TiO2,mp-TiO2,23.2,spiro,55.2034,Au,two-step,spin,CB,DMF/DMSO,100.0,30.0,21.2,0.91,0.54,10.3
0.05,0.7885,0.1615,2.49,0.51,0,1.69576,FTO,C,unknown,32.8,NiOx,150.22,Ag,two-step,spin,CB,DMF/DMSO,100.0,60.0,20.29,1.0788,0.7274,13.7
[...]
0.05,0.79,0.16,2.5,0.5,1,1.68654,ITO,TiO2,unknown,34.6,ClS,150.22,Au,two-step,spin,CB,DMF/DMSO,100.0,60.0,17.36,1.03,0.71,12.77
0.05,0.7885,0.1615,1.95,1.05,1,1.78819,ITO,SnO2,unknown,22.2,spiro,139.2,Au,two-step,R2R,CB,DMF/DMSO,100.0,10.0,17.17,1.09,0.7583,14.24
0.05,0.7885,0.1615,2.49,0.51,1,1.60329,FTO,c-TiO2,mp-TiO2,82.0,spiro,252.0,Au,one-step,spin,T,DMF/DMSO,100.0,60.0,23.6,1.15,0.73,19.9
0.0,0.67,0.33,0.0,3.0,1,2.28,FTO,c-TiO2,mp-TiO2,21.2,spiro,94.0034,Au,two-step,spin,CB,DMF/DMSO,100.0,30.0,7.0,1.35,0.58,5.5
0.0,0.85,0.15,2.85,0.15,1,1.55,FTO,SnO2,C,28.0,spiro,172.0,Ag,three-step,CAGQ,unknown,DMF/DMSO,150.0,30.0,0.9,18.4,0.46,7.7
0.05,0.7885,0.1615,2.49,0.51,1,1.63352,FTO,Li-TiO2,unknown,72.6,spiro,200.62,Au,one-step,coat,CB,DMF/DMSO,100.0,60.0,23.3,1.08,0.738,17.3
1.0,0.0,0.0,1.0,2.0,1,1.84453,FTO,c-TiO2,unknown,28.0,spiro,172.0,Ag,two-step,spin,unknown,DMSO,225.0,10.0,11.5,1.26,0.73,10.6
0.2,0.8,0.0,3.0,0.0,1,1.56,FTO,c-TiO2,mp-TiO2,24.2,spiro,65.2,Au,two-step,spin,CB,DMF/DMSO,100.0,10.0,21.5,1.017,0.701,15.69
0.05,0.7885,0.1615,2.49,0.51,1,1.60329,FTO,c-TiO2,mp-TiO2,80.0,spiro,250.0,Au,one-step,spin,CB,DMF/DMSO,100.0,60.0,23.5,1.11,0.77,20.1
0.5,0.4,0.1,2.49,0.51,1,1.7,ITO,C60,unknown,46.4,TaTm,102.0,Au,Vacuum Deposited,unknown,unknown,unknown,112.0,34.0,17.0,1.146,0.82,16
0.05,0.7885,0.1615,0.0,3.0,1,1.69757,ITO,SnO2,unknown,22.2,spiro,139.2,Au,two-step,R2R,CB,DMF/DMSO,100.0,10.0,6.01,1.31,0.5524,4.36
0.0,0.4,0.6,3.0,0.0,0,1.53,ITO,PCBM,unknown,22.2,PEDOT:PSS,135.2,Ag,two-step,spin,toluene,GBL/DMSO,100.0,5.0,20.96,0.979,0.647,13.28
0.05,0.8,0.15,2.55,0.45,1,1.69477,FTO,c-TiO2,unknown,34.008,spiro,190.22,Au,one-step,spin,CB,DMF/DMSO/0.6Pr,100.0,60.0,22.31,1.085,0.76,18.04
0.25,0.5625,0.1875,2.4,0.6,0,1.7,ITO,C,BCP,21.2,PTAA,94.0034,Cu,two-step,spin,unknown,DMF/NMP,100.0,30.0,17.8,1.12,0.705,14.1
0.0,0.67,0.33,1.5,1.5,1,1.85,FTO,c-TiO2,mp-TiO2,21.2,spiro,94.0034,Au,two-step,spin,CB,DMF/DMSO,100.0,30.0,15.3,1.11,0.69,11.7
0.0,0.0,1.0,3.0,0.0,1,1.70642,ITO,SnO2,unknown,20.0,spiro,220.0,Ag,two-step,spin,CB,DMF/DMSO,100.0,10.0,20.1,1.05,0.688,14.6
0.065,0.6545,0.2805,2.67,0.33,1,1.5274,ITO,SnO2,unknown,28.0,P3HT/MoO3,172.0,Al,two-step,spin,unknown,DMF/DMSO,150.0,15.0,21.12,1.02,0.6057,12.87
0.05,0.7885,0.1615,2.49,0.51,1,1.6,FTO,TiO2,unknown,0.04,CuSbS2,0.1,Pt,two-step,spin,CB,DMF:DMSO:NMP,100.0,60.0,22.68,1.14,0.76,19.61
0.0,0.0,1.0,3.0,0.0,1,1.59,FTO,SnO2,C,40.6,spiro,74.0,Ag,three-step,spin,unknown,DMF,100.0,60.0,1.01,21.4,0.66,14.6
0.05,0.7885,0.1615,2.49,0.51,1,1.56211,ITO,SnO2,unknown,30.0,spiro,165.0,Ag,one-step,spin,CB,DMF/DMSO,120.0,0.0,20.17,1.12,0.6634,15.03
0.05,0.76,0.19,2.45,0.6,1,1.572,FTO,TiO2,unknown,72.6,spiro,200.62,Au,two-step,spin,CB,DMF/DMSO,100.0,60.0,23.29,1.156,0.765,20.6
0.065,0.6545,0.2805,2.67,0.33,1,1.68539,ITO,SnO2,unknown,28.0,4PeRyLene/P3HT/MoO3,172.0,Al,two-step,spin,unknown,DMF/DMSO,150.0,15.0,22.36,1.02,0.6199,14.19
0.05,0.8075,0.1425,2.6,0.45,1,1.546,FTO,TiO2,unknown,72.6,spiro,200.62,Au,two-step,spin,CB,DMF/DMSO,100.0,60.0,23.61,1.135,0.777,20.7
0.07,0.9,0.03,2.76,0.24,1,1.69576,FTO,c-TiO2,mp-TiO2,28.0,spiro/Gual,172.0,Au,two-step,spin,CB,DMF/DMSO/IAI,150.0,30.0,23.85,1.15,0.79,22.11
0.0,0.17,0.83,1.0,2.0,1,1.99,FTO,c-TiO2,mp-TiO2,21.2,spiro,94.0034,Au,two-step,spin,CB,DMF/DMSO,100.0,30.0,5.1,0.94,0.74,3.5
0.0,0.17,0.83,1.5,1.5,1,1.86,FTO,c-TiO2,mp-TiO2,21.2,spiro,94.0034,Au,two-step,spin,CB,DMF/DMSO,100.0,30.0,10.3,1.07,0.79,8.7
0.0,0.85,0.15,2.85,0.15,1,1.55,ITO,TiO2,unknown,23.2,spiro,104.2,Au,one-step,spin,CB,DMF/DMSO,100.0,10.0,20.96,1.01,0.61,14.29
0.1,0.747,0.153,2.49,0.51,1,1.54744,ITO,SnO2,unknown,72.6,spiro,150.428,Au,two-step,spin,ANI,DMF/DMSO,100.0,60.0,25.42,1.049,0.758,20.21
0.0,0.85,0.15,2.55,0.45,1,1.69757,FTO,ALD-SnO2,unknown,32.6,spiro,190.22,Au,two-step,spin,CB,DMF/DMSO,100.0,60.0,21.3,1.14,0.74,18.4
0.05,0.7885,0.1615,2.49,0.51,1,1.68591,ITO,SnO2,unknown,30.0,spiro,165.0,Ag,one-step,spin,CB,DMF/DMSO,120.0,15.0,20.91,1.14,0.7513,17.97
0.0,0.5,0.5,3.0,0.0,1,1.55,FTO,c-TiO2,mp-TiO2,22.2,spiro,94.0034,Au,two-step,spin,CB,DMF/DMSO,100.0,30.0,19.6,0.96,0.68,12.8
0.05,0.915,0.085,2.745,0.255,1,1.68539,FTO,c-TiO2,mp-TiO2,22.2,spiro,135.2,Au,one-step,spin,unknown,DMF/DMSO,100.0,3.0,20.6,1.084,0.625,14
0.0,0.83,0.17,2.49,0.51,1,1.60329,FTO,TiO2,unknown,60.0,spiro,80.0,Au,two-step,spin,CB,DMF/DMSO,110.0,60.0,8.507,1.02,0.4096,3.57
0.15,0.6375,0.2125,2.49,0.51,0,1.65,ITO,C,BCP,22.2,PTAA,94.0034,Cu,two-step,spin,unknown,DMF/NMP,100.0,30.0,20.3,1.09,0.757,16.8
0.05,0.81,0.14,2.55,0.45,1,1.57,unknown,unknown,unknown,39.0,unknown,106.0,unknown,unknown,unknown,unknown,unknown,110.0,44.0,22.16,1.23,0.78,21.1
0.06,0.45,0.49,1.86,0.96,1,1.8,FTO,SnO2,unknown,21.2,spiro,94.0034,C,one-step,spin,unknown,DMF/DMSO,100.0,30.0,12.1,1.05,0.49,7.2
0.05,0.7885,0.1615,2.7,0.3,0,1.69576,ITO,PCBM,ZnO,25.0,NiOx,45.0,Al,two-step,spin,CB,DMF/DMSO,100.0,10.0,22.2,1.024,0.75,17
0.0,0.85,0.15,2.55,0.45,1,1.6,ITO,TiO2,unknown,23.2,spiro,104.2,Au,one-step,spin,CB,DMF/DMSO,100.0,10.0,20.77,1.04,0.68,14.47
0.33,0.33,0.33,2.4,0.6,1,1.68575,FTO,c-TiO2,mp-TiO2,40.0,spiro,50.0,Au,two-step,spin,CB,DMF/DMSO,100.0,60.0,18.43,1.05,0.48,9.3
0.0,0.5,0.5,2.5,0.5,1,1.61,FTO,c-TiO2,mp-TiO2,22.2,spiro,94.0034,Au,two-step,spin,CB,DMF/DMSO,100.0,30.0,20.4,1.04,0.61,12.9
0.0,0.85,0.15,3.0,0.0,1,1.6744,FTO,c-TiO2,mp-TiO2,52.0,spiro,104.0,Au,one-step,spin,toluene,DMSO,150.0,60.0,15.66,0.805,0.598,7.53
0.25,0.75,0.0,2.1,0.9,1,1.73,FTO,SnO2,C,28.0,spiro,172.0,Ag,three-step,spin,unknown,DMF/DMSO,150.0,30.0,1.06,17.1,0.67,12.2
0.05,0.7885,0.1615,2.49,0.51,1,1.60329,FTO,5%Nb–mpTiO2,unknown,34.6,unknown,160.22,Au,one-step,spin,CB,DMF/DMSO,100.0,60.0,15.14,0.82,0.49,6.08
0.05,0.8,0.15,2.55,0.45,1,1.69576,FTO,c-TiO2,unknown,34.008,spiro,190.22,Au,two-step,spin,CB,DMF/DMSO/0.15Pr,100.0,60.0,22.51,1.116,0.76,18.97
0.02,0.38,0.6,2.975,0.025,0,1.5274,ITO,PCBM,unknown,24.2,PEDOT:PSS,61.2,PEIE/Ag,one-step,R2R,unknown,DMF,100.0,10.0,21.75,0.98,0.5476,11.67
0.0,0.3,0.7,0.6,2.4,0,1.69,ITO,C60,PCBM,22.2,NiOx,139.2,Ag,two-step,spin,toluene,DMF/DMSO,100.0,10.0,17.34,1.11,0.78,15.01
0.02,0.38,0.6,2.975,0.026,0,1.60329,ITO,PCBM,unknown,22.2,PEDOT:PSS,139.2,Ca/Al,one-step,R2R,unknown,DMF,100.0,10.0,17.59,0.94,0.7418,12.26
0.06,0.79,0.15,1.2,1.8,1,1.83,FTO,c-TiO2,mp-TiO2,34.6,spiro,160.22,Au,two-step,spin,CB,DMF/DMSO,100.0,60.0,15.3,1.12,0.72,12.3
0.05,0.7885,0.1615,2.49,0.51,1,1.69477,FTO,2%Nb–PlanarTiO2,unknown,34.6,unknown,160.22,Au,one-step,spin,CB,DMF/DMSO,100.0,60.0,16.09,0.8,0.47,6.04
0.05,0.7885,0.1615,2.49,0.51,1,1.54726,FTO,TiO2,unknown,52.0,spiro:tBP : LiTFSI : FK209,104.0,Ag,one-step,spin,CB,DMF/DMSO,110.0,60.0,22.3,1.14,0.705,18.3
0.0,1.0,0.0,3.0,0.0,1,1.6848,FTO,c-TiO2,mp-TiO2,52.0,spiro,104.0,Au,one-step,spin,toluene,DMSO,150.0,60.0,17.55,0.802,0.655,9.22
0.05,0.7885,0.1615,2.79,0.21,1,1.55,Quartz/ITO,SnO2,unknown,28.0,P3HT,172.0,BCP,two-step,spin,CB,DMF/DMSO,150.0,15.0,19.7,0.9,0.57,10.7
0.0,0.67,0.33,3.0,0.0,1,1.53,FTO,c-TiO2,mp-TiO2,24.2,spiro,59.0034,Au,two-step,spin,CB,DMF/DMSO,100.0,30.0,22.7,0.97,0.63,13.9
0.07,0.9,0.03,2.76,0.24,1,1.69576,FTO,c-TiO2,mp-TiO2,28.0,spiro/EAI,172.0,Au,two-step,spin,CB,DMF/DMSO/IPA,150.0,30.0,23.96,1.1,0.76,20.44
0.0,0.85,0.15,2.55,0.45,1,1.69576,ITO,SnO2,unknown,28.0,spiro,172.0,Au,two-step,spin,EA/0.1Hex,DMF/DMSO,130.0,30.0,21.68,1.14,0.6744,16.88
0.05,0.54,0.41,2.94,0.06,1,1.63836,ITO,SnO2,unknown,28.0,spiro,172.0,Au,two-step,spin,unknown,DMF/DMSO,150.0,15.0,24.03,1.095,0.7477,19.68
0.05,0.87,0.08,2.76,0.24,0,1.69576,ITO,BCP,C60,24.2,PTAA,59.0034,Ag,one-step,spin,unknown,DMF/DMSO/BMIM:PF6,100.0,30.0,22.74,0.97,0.738,16.2
0.05,0.87,0.08,2.76,0.24,0,1.69576,ITO,BCP,C60,24.2,PTAA,52.0034,Ag,one-step,spin,unknown,DMF/DMSO/PA/4F-PEAI/Pb(SCN)2,100.0,30.0,21.65,1.03,0.725,16.5
0.0,0.83,0.17,3.0,0.0,1,1.53,FTO,c-TiO2,mp-TiO2,23.2,spiro,55.2034,Au,two-step,spin,CB,DMF/DMSO,100.0,30.0,21.5,0.92,0.61,12.1
0.1,0.75,0.15,2.55,0.45,1,1.60329,ITO,SpraySnO2,unknown,34.6,spiro,150.22,Ag,two-step,spin,EA/HEX,DMF/DMSO,100.0,60.0,18.31,1.182,0.7064,14.49
0.0,0.33,0.67,2.5,0.5,1,1.67,FTO,c-TiO2,mp-TiO2,22.2,spiro,94.0034,Au,two-step,spin,CB,DMF/DMSO,100.0,30.0,18.7,0.91,0.64,11
0.05,0.83,0.17,2.49,0.51,1,1.63352,FTO,c-TiO2,mp-TiO2,22.2,spiro,135.2,Au,one-step,spin,unknown,DMF/DMSO,100.0,3.0,18.9,1.113,0.577,12.1
0.0,0.0,1.0,3.0,0.0,1,1.6,ITO,C60,unknown,32.0,TaTm,159.0,Au,Vacuum Deposited,unknown,unknown,unknown,120.0,23.0,19.6,1.094,0.812,17.4
0.0,0.4,0.6,1.8,1.2,0,1.76,ITO,PCBM,BCP,30.0,PTAA,165.0,Ag,one-step,spin,CB,DMF/DMSO,130.0,10.0,1.17,16.0,0.786,14.7
0.06,0.8,0.14,2.58,0.42,1,1.68575,FTO,TiO2,unknown,24.2,spiro,55.0034,Ag,two-step,spin,CB,DMF/DMSO/0.5APL,100.0,30.0,23.65,1.1,0.814,21.37
0.2,0.8,0.0,3.0,0.0,1,1.56,FTO,c-TiO2,mp-TiO2,24.2,spiro,65.2,Au,two-step,spin,CB,DMF/DMSO,100.0,10.0,21.5,1.017,0.701,15.69
0.05,0.79,0.15,2.45,0.55,1,1.69576,FTO,c-TiO2,mp-TiO2,34.008,spiro,190.22,Au,two-step,spin,CB,DMF/DMSO,100.0,60.0,22.43,1.08,0.8048,19.5
0.0,0.4,0.6,3.0,0.0,1,1.69593,TCO,ZnO,unknown,32.6,P3HT,126.0034,Ag,two-step,R2R,CB,unknown,100.0,22.6,20.6,1.05,0.536,11.6
0.05,0.7885,0.1615,2.49,0.51,1,1.55154,ITO,SnO2,unknown,72.6,spiro,150.428,Au,two-step,spin,ANI,DMF/DMSO,100.0,60.0,25.54,1.006,0.723,18.58
0.0,1.0,0.0,3.0,0.0,1,1.60388,FTO,c-TiO2,mp-TiO2,24.2,spiro,65.2,Au,two-step,spin,CB,DMF/DMSO,100.0,10.0,21.4,0.809,0.592,10.4
0.0,0.3,0.7,0.15,2.85,0,1.6,ITO,C60,PCBM,23.2,NiOx,104.2,Ag,two-step,spin,toluene,DMF/DMSO,100.0,10.0,20.48,1.06,0.77,16.72
0.0,0.95,0.05,2.85,0.15,1,1.60886,ITO,bl-TiO2,mp-TiO2,28.0,spiro,172.0,Au,two-step,spin,CB,DMF/DMSO,120.0,30.0,24.8,1.17,0.81,23.5
0.07,0.79,0.14,2.49,0.51,0,1.69218,ITO,PCBM,unknown,25.008,PEDOT:PSS,82.2,PEIE/Au,R2R,unknown,unknown,unknown,100.0,24.0,21.7,0.93,0.49,10.1
0.065,0.6545,0.2805,2.67,0.33,1,1.68539,ITO,SnO2,unknown,28.0,PeRyLene/P3HT/MoO3,172.0,Al,two-step,spin,unknown,DMF/DMSO,150.0,15.0,22.23,1.04,0.6215,14.04
0.05,0.7885,0.1615,2.49,0.51,1,1.5016,FTO,c-TiO2,mp-TiO2,68.6,spiro,140.4174,Au,one-step,spin,CB,DMF/DMSO/EMIMCL,100.0,45.0,24.4,1.185,0.745,21.54
0.0,0.33,0.67,1.5,1.5,1,1.85,FTO,c-TiO2,mp-TiO2,21.2,spiro,94.0034,Au,two-step,spin,CB,DMF/DMSO,100.0,30.0,13.9,1.13,0.68,10.7
0.17,0.83,0.0,1.8,1.2,0,1.84453,ITO,C,BCP,28.0,Me-2PACz/MACl,172.0,Ag,unknown,spin,ANI,DMF/DMSO/MACl,150.0,10.0,17.2,1.25,0.78,17
0.05,0.85,0.1,2.55,0.45,1,1.69576,FTO,SnO2,unknown,0.04,spiro,40.0514,Cu,one-step,spin,CB,DMF/DMSO,100.0,60.0,22.01,1.045,0.743,17.1
0.3,0.7,0.0,3.0,0.0,1,1.680154,FTO,c-TiO2,unknown,28.0,spiro,172.0,Ag,three-step,spin,toluene,DMF/DMSO,170.0,10.0,19.46,1.04,0.73,14.8
0.05,0.8,0.15,2.55,0.45,1,1.69117,FTO,c-TiO2,unknown,46.208,spiro,190.22,Au,two-step,spin,CB,DMF/DMSO/0.3Pr,100.0,60.0,22.82,1.145,0.76,19.79
0.2,0.8,0.0,3.0,0.0,1,1.574,FTO,SnO2,C,28.0,spiro,172.0,Au,one-step,spin,diethyl ether,DMF/DMSO,150.0,10.0,21.73,1.03,0.7237,16.18
0.5,0.5,0.0,2.49,0.51,1,1.62,ITO,C60,unknown,46.4,TaTm,74.0,Au,Vacuum Deposited,unknown,unknown,unknown,110.0,34.0,17.6,0.846,0.57,8.5
0.175,0.75,0.075,2.64,0.36,1,1.57,FTO,c-TiO2,mp-TiO2,24.2,spiro,61.0,Au,two-step,spin,CB,DMF/DMSO,100.0,20.0,21.88,1.124,0.75,18.45
0.1,0.75,0.15,2.49,0.51,1,1.69444,FTO,c-TiO2,mp-TiO2,31.0,spiro,50.0314,Au,two-step,spin,CB,DMF/DMSO,100.0,60.0,20.7,1.049,0.75,16.3
0.0,0.85,0.15,1.95,1.05,1,1.72,ITO,TiO2,unknown,22.2,spiro,139.2,Au,one-step,spin,CB,DMF/DMSO,100.0,10.0,17.86,1.1,0.65,12.11
0.0,0.3,0.7,0.45,2.55,0,1.66,ITO,C60,PCBM,23.2,NiOx,104.2,Ag,two-step,spin,toluene,DMF/DMSO,100.0,10.0,18.94,1.11,0.78,16.4
0.05,0.7885,0.1615,2.49,0.51,1,1.63352,ITO,SnO2,unknown,52.0,5TPFPB/spiro,104.0,Au,two-step,spin,CB,DMF/DMSO,110.0,50.0,23.74,1.16,0.778,21.42
0.05,0.8075,0.1425,2.55,0.45,1,1.612,FTO,c-TiO2,mp-TiO2,36.008,spiro,190.22,Au,one-step,spin,CB,DMF/DMSO,100.0,60.0,21.7,1.055,0.7548,17.1
0.05,0.7125,0.2375,2.7,0.3,0,1.6,ITO,C,BCP,22.2,PTAA,94.0034,Cu,two-step,spin,unknown,DMF/NMP,100.0,30.0,20.8,1.08,0.767,17.3
0.0,0.85,0.15,1.8,1.2,1,1.76,ITO,TiO2,unknown,22.2,spiro,139.2,Au,one-step,spin,CB,DMF/DMSO,100.0,10.0,15.8,1.11,0.56,8.32
0.05,0.9025,0.0475,2.9,0.15,1,1.503,FTO,TiO2,unknown,72.6,spiro,150.428,Au,two-step,spin,CB,DMF/DMSO,100.0,60.0,24.69,1.126,0.768,21.4
0.2,0.8,0.0,2.84,0.16,1,1.58,FTO,c-TiO2,mp-TiO2,24.2,spiro,61.2,Au,two-step,spin,CB,DMF/DMSO,100.0,10.0,21.9,1.073,0.742,17.35
0.05,0.7885,0.1615,2.49,0.51,1,1.69005,FTO,TiO2,Y-TiO2,52.0,spiro,104.0,Au,two-step,spin,CB,DMF/DMSO,110.0,50.0,23.65,1.184,0.71,20.09
0.17,0.83,0.0,1.8,1.2,0,1.69478,ITO,C,BCP,21.2,Me-2PACz,94.0034,Ag,unknown,spin,ANI,DMF/DMSO,100.0,30.0,17.3,1.22,0.77,16
0.05,0.8,0.15,2.52,0.48,1,1.6312,ITO,TiO2,unknown,46.2,CuSCN,91.0,Cu,unknown,unknown,unknown,unknown,102.0,38.6,18.503,1.1,0.739,15.054
0.05,0.7885,0.1615,2.49,0.51,1,1.60329,FTO,c-TiO2,mp-TiO2,81.0,spiro,251.0,Au,one-step,spin,EA,DMF/DMSO,100.0,60.0,23.3,1.15,0.74,19.8
0.0,0.0,1.0,2.5,0.5,1,1.66,FTO,c-TiO2,mp-TiO2,21.2,spiro,94.0034,Au,two-step,spin,CB,DMF/DMSO,100.0,30.0,18.3,1.1,0.66,13.2
0.1,0.747,0.153,2.49,0.51,1,1.76235,FTO,c-TiO2,mp-TiO2,72.6,spiro,200.62,Au,two-step,spin,CB,DMF/DMSO,100.0,60.0,23.6,1.11,0.77,20.2
0.05,0.87,0.08,2.76,0.24,0,1.54726,ITO,BCP,C60,24.2,PTAA,55.0034,Ag,one-step,spin,unknown,DMF/DMSO/4F-PEAI/Pb(SCN)2/Ga(AcAc)3,100.0,30.0,22.06,1.07,0.798,18.7
0.05,0.7885,0.1615,2.515,0.4845,0,1.68724,ITO,C,unknown,36.008,0.033PTAA,190.22,Cu,one-step,spin,diethyl ether,DMF/DMSO,100.0,60.0,22.0,1.08,0.753,17.8
0.0,0.4,0.6,3.0,0.0,1,1.69576,FTO,TiO2,unknown,44.2,spiro,108.0,Au,one-step,spin,unknown,unknown,110.0,39.6,18.96,0.992,0.692,13.4
0.05,0.7885,0.1615,2.46,0.54,1,1.63,unknown,unknown,unknown,30.2,unknown,89.2,unknown,unknown,unknown,unknown,unknown,100.0,44.0,21.6,1.1,0.779,18.4
0.05,0.8,0.15,2.55,0.45,1,1.63,unknown,unknown,unknown,46.208,unknown,149.22,unknown,unknown,unknown,unknown,unknown,104.0,47.0,22.8,1.24,0.78,22.1
0.05,0.85,0.15,2.55,0.45,0,1.52863,ITO,PCBM,BCP,72.6,PTAA,200.62,Ag,one-step,spin,EA,DMF/DMSO,100.0,60.0,23.36,1.04,0.7895,19.18
0.0,0.83,0.17,2.49,0.51,1,1.60329,FTO,c-TiO2,mp-TiO2,80.0,spiro,250.0,Au,one-step,spin,CB,DMF/DMSO,100.0,60.0,23.7,1.11,0.77,20.1
0.17,0.83,0.0,1.2,1.8,1,1.93,FTO,SnO2,unknown,34.6,spiro,160.22,Au,two-step,spin,CB,DMF/DMSO,100.0,60.0,13.6,1.312,0.652,14.35
0.17,0.83,0.0,1.8,1.2,0,1.68654,ITO,C,BCP,21.2,MeO-2PACz,94.0034,Ag,unknown,spin,ANI,DMF/DMSO,100.0,30.0,16.7,1.13,0.79,14
0.0,0.55,0.45,1.65,1.35,1,1.81,ITO,TiO2,unknown,22.2,spiro,139.2,Au,one-step,spin,CB,DMF/DMSO,100.0,10.0,17.38,1.1,0.6,12.33
0.0,0.6,0.4,3.0,0.0,0,1.54,ITO,C60,PCBM,23.2,NiOx,104.2,Ag,two-step,spin,toluene,DMF/DMSO,100.0,10.0,20.38,0.99,0.65,13.11
0.05,0.87,0.08,2.76,0.24,0,1.69576,ITO,BCP,C60,24.2,PTAA,52.0034,Ag,one-step,spin,unknown,DMF/DMSO/Ga(AcAc)3,100.0,30.0,21.87,1.02,0.799,17.9
0.05,0.79,0.16,2.5,0.5,1,1.68654,ITO,TiO2,unknown,34.4,ClS,150.22,Au,two-step,spin,CB,DMF/DMSO/MWCNT-g-PDDT,100.0,60.0,19.4,1.04,0.71,14.39
0.17,0.83,0.0,2.4,0.8,1,1.72,FTO,SnO2,unknown,34.6,spiro,150.22,Au,two-step,spin,CB,DMF/DMSO,100.0,60.0,18.3,1.244,0.77,18.6
0.05,0.7885,0.1615,2.49,0.51,1,1.60329,FTO,4%Nb–mpTiO2,unknown,34.6,unknown,160.22,Au,one-step,spin,CB,DMF/DMSO,100.0,60.0,14.98,0.83,0.47,5.84
0.0,0.83,0.17,2.49,0.51,1,1.76118,FTO,c-TiO2,mp-TiO2,30.0,spiro,50.0314,Au,two-step,spin,CB,DMF/DMSO,100.0,60.0,22.1,1.071,0.71,16.8
0.0,0.83,0.17,1.0,2.0,1,1.98,FTO,c-TiO2,mp-TiO2,21.2,spiro,94.0034,Au,two-step,spin,CB,DMF/DMSO,100.0,30.0,11.1,0.98,0.54,5.8
0.0,0.83,0.17,2.5,0.5,1,1.63,FTO,c-TiO2,mp-TiO2,24.2,spiro,59.0034,Au,two-step,spin,CB,DMF/DMSO,100.0,30.0,22.7,1.1,0.7,17.4
0.05,0.79,0.16,3.0,0.0,1,1.68558,FTO,c-TiO2,mp-TiO2,46.208,SnS,200.62,Au,two-step,spin,CB,DMF/DMSO/CsI,100.0,60.0,22.96,0.944,0.633,13.72
0.05,0.7885,0.1615,2.515,0.4845,0,1.68724,ITO,C,unknown,34.008,0.015PTAA,190.22,Cu,one-step,spin,diethyl ether,DMF/DMSO,100.0,60.0,22.2,1.07,0.798,18.8
0.05,0.79,0.15,2.45,0.55,1,1.54116,ITO,c-TiO2,mp-TiO2,26.208,spiro,190.22,Au,two-step,spin,CB,DMF/DMSO,100.0,60.0,21.61,1.09,0.6463,15.23
0.05,0.83,0.12,2.61,0.39,1,1.61,FTO,c-TiO2,mp-TiO2/SnO2-NCs,32.008,spiro,140.223,Au,two-step,spin,CB,DMF/DMSO,100.0,50.0,21.83,1.135,0.684, 16.92
0.06,0.8,0.14,2.58,0.42,1,1.68575,FTO,TiO2,unknown,24.2,spiro,55.0034,Ag,two-step,spin,CB,DMF/DMSO/3APL,100.0,30.0,23.83,1.09,0.792,20.59
0.05,0.7885,0.1615,2.49,0.51,1,1.53797,FTO,TiO2,unknown,60.0,spiro:Dopant-free,80.0,Ag,one-step,spin,CB,DMF/DMSO,110.0,60.0,18.9,0.79,0.434,6.2
0.0,1.0,0.0,0.0,3.0,1,2.27,FTO,c-TiO2,mp-TiO2,21.2,spiro,94.0034,Au,two-step,spin,CB,DMF/DMSO,100.0,30.0,7.5,1.14,0.58,5
0.05,0.8075,0.1425,2.572,0.4275,1,1.65,unknown,unknown,unknown,46.4,unknown,108.0,unknown,unknown,unknown,unknown,unknown,102.0,32.0,1.21,1.59,22.59,0.81
0.4,0.498,0.102,2.49,0.51,1,1.69576,FTO,c-TiO2,mp-TiO2,34.6,spiro,150.22,Au,two-step,spin,CB,DMF/DMSO,100.0,60.0,18.3,1.01,0.71,13.1
0.0,0.83,0.17,1.5,1.5,1,1.87,FTO,c-TiO2,mp-TiO2,21.2,spiro,94.0034,Au,two-step,spin,CB,DMF/DMSO,100.0,30.0,15.6,1.15,0.63,11.4
0.15,0.85,0.0,2.85,0.15,1,1.59,FTO,SnO2,C,28.0,spiro,172.0,Ag,three-step,spin,unknown,DMF/DMSO,150.0,30.0,0.98,21.5,0.7,14.7
0.05,0.7885,0.1615,2.49,0.51,1,1.69576,FTO,1%Nb–mpTiO2,unknown,34.6,unknown,160.22,Au,one-step,spin,CB,DMF/DMSO,100.0,60.0,14.52,0.84,0.41,5
0.2,0.8,0.0,1.95,1.05,1,1.76,FTO,SnO2,C,28.0,spiro,172.0,Ag,three-step,spin,unknown,DMF/DMSO,150.0,30.0,1.08,16.9,0.7,12.5
0.0,0.0,1.0,3.0,0.0,1,1.6,unknown,unknown,unknown,32.6,unknown,98.2034,unknown,unknown,unknown,unknown,unknown,106.0,44.0,20.7,1.26,0.8,20.7
0.08,0.8004,0.1196,2.641,0.3588,1,1.60329,FTO,c-TiO2,mp-TiO2,72.6,spiro,200.614,Cu,two-step,spin,CB,DMF/DMSO,100.0,60.0,24.13,1.1,0.676,17.82
0.4,0.0,0.6,3.0,0.0,0,1.62,ITO,PCBM,unknown,24.0,PEDOT:PSS,198.0,Al,one-step,spin,toluene,GBL/DMF,110.0,10.0,4.26,1.03,0.57,2.5
0.0,0.65,0.35,1.95,1.05,1,1.73,ITO,TiO2,unknown,22.2,spiro,139.2,Au,one-step,spin,CB,DMF/DMSO,100.0,10.0,18.5,1.09,0.68,13.95
0.15,0.85,0.0,2.55,0.45,1,1.76235,ITO,SnO2,unknown,21.2,spiro,94.0034,Au,two-step,R2R,CB,DMSO/2BE,100.0,30.0,15.2,1.029,0.715,15.2
0.05,0.7885,0.1615,2.49,0.51,1,1.52914,FTO,TiO2,unknown,52.0,spiro:tBP : LiTFSI,104.0,Ag,one-step,spin,CB,DMF/DMSO,110.0,60.0,21.9,1.09,0.681,16.5
0.0,0.0,1.0,3.0,0.0,1,1.53408,ITO,SnO2,unknown,20.0,spiro,220.0,Ag,two-step,R2R,CB,DMF/DMSO,100.0,10.0,15.5,0.83,0.607,7.8
0.05,0.88,0.07,3.0,0.0,0,1.84453,FTO,PCBM,BCP,24.2,MeO-4PACz,64.0,Ag,one-step,spin,isopropanol ,DMF/DMSO,100.0,15.0,25.08,1.167,0.8401,24.29
0.05,0.7885,0.1615,2.515,0.4845,0,1.68568,ITO,C,unknown,34.008,0.1PTAA,190.22,Cu,one-step,spin,diethyl ether,DMF/DMSO,100.0,60.0,22.2,1.03,0.808,18.4
0.05,0.7885,0.1615,2.49,0.51,1,1.69576,FTO,Li-TiO2,unknown,72.6,spiro,150.428,Au,one-step,coat,BBr,DMF/DMSO,100.0,60.0,24.8,1.1,0.696,18.3
0.07,0.9,0.03,2.76,0.24,1,1.69576,FTO,c-TiO2,mp-TiO2,28.0,spiro/Gual,172.0,Au,two-step,spin,CB,DMF/DMSO/EAI/IAI,150.0,30.0,21.97,1.14,0.71,18.1
0.25,0.5625,0.1875,2.28,0.72,0,1.72,ITO,C,BCP,21.2,PTAA,94.0034,Cu,two-step,spin,unknown,DMF/NMP,100.0,30.0,17.9,1.12,0.764,15.3
0.0,0.33,0.67,1.0,2.0,1,1.97,FTO,c-TiO2,mp-TiO2,21.2,spiro,94.0034,Au,two-step,spin,CB,DMF/DMSO,100.0,30.0,9.0,1.08,0.64,6.2
0.05,0.875,0.075,2.835,0.225,1,1.68575,FTO,c-TiO2,mp-TiO2,52.0,TBTA[6]H/TBPHTFSI,104.0,Au,two-step,spin,CB,DMF/DMSO/MF,120.0,60.0,24.57,1.13,0.8,22.2
0.1,0.747,0.153,2.49,0.51,1,1.69005,FTO,c-TiO2,unknown,34.6,spiro,150.22,Cu,two-step,spin,CB,DMF/DMSO,100.0,60.0,18.0,1.09,0.72,14.1
0.7,0.3,0.0,3.0,0.0,1,1.675392,FTO,c-TiO2,unknown,28.0,spiro,172.0,Ag,three-step,spin,toluene,DMF/DMSO,170.0,10.0,18.08,1.0,0.56,10.2
0.2,0.664,0.136,2.49,0.51,1,1.60329,FTO,TiO2,unknown,60.0,spiro,80.0,Au,two-step,spin,CB,DMF/DMSO,110.0,60.0,17.11,0.95,0.5499,8.92
0.175,0.75,0.075,2.64,0.36,0,1.52576,ITO,PCBM,ZnO,24.2,NiOx,65.2,Ag,two-step,spin,unknown,DMF/DMSO,100.0,10.0,21.3,1.06,0.7695,17.42
0.05,0.86,0.09,2.91,0.09,1,1.56,FTO,SnO2,unknown,72.6,spiro,200.62,Ag,two-step,spin,CB,DMF/DMSO/MACl,100.0,60.0,23.5,1.08,0.776,19.7
0.05,0.7885,0.1615,2.49,0.51,1,1.52658,FTO,5%Nb–PlanarTiO2,unknown,34.6,unknown,150.22,Au,one-step,spin,CB,DMF/DMSO,100.0,60.0,16.98,0.78,0.54,7.15